Shimmer,Shimmer,Shimmer,Shimmer,Shimmer,Shimmer,Shimmer,Shimmer,Shimmer,Shimmer,Shimmer,Shimmer,Shimmer,Shimmer,Shimmer,Shimmer,Shimmer,Shimmer,Shimmer,Shimmer,Shimmer,Shimmer,Shimmer,Shimmer,Shimmer,Shimmer,
Timestamp,Timestamp,Low Noise Accelerometer X,Low Noise Accelerometer X,Low Noise Accelerometer Y,Low Noise Accelerometer Y,Low Noise Accelerometer Z,Low Noise Accelerometer Z,Wide Range Accelerometer X,Wide Range Accelerometer X,Wide Range Accelerometer Y,Wide Range Accelerometer Y,Wide Range Accelerometer Z,Wide Range Accelerometer Z,Gyroscope X,Gyroscope X,Gyroscope Y,Gyroscope Y,Gyroscope Z,Gyroscope Z,Pressure,Pressure,Temperature,Temperature,GSR,GSR,
RAW,CAL,RAW,CAL,RAW,CAL,RAW,CAL,RAW,CAL,RAW,CAL,RAW,CAL,RAW,CAL,RAW,CAL,RAW,CAL,RAW,CAL,RAW,CAL,RAW,CAL,
no units,mSecs,no units,m/(sec^2),no units,m/(sec^2),no units,m/(sec^2),no units,m/(sec^2),no units,m/(sec^2),no units,m/(sec^2),no units,deg/sec,no units,deg/sec,no units,deg/sec,no units,kPa,no units,Celcius*,no units,kOhms,
7093123,0,2009,-3.63855421686747,2349,0.457831325301205,1295,9.06024096385542,5312,-3.25689760882894,448,0.274678111587983,-14720,9.02513795217658,-51,-1.12977099236641,74,0.778625954198473,-54,0.82442748091603,43373,99.731170968254,26921,26.061519518657,49152,-3317.8500331785,1493933658998,
7099677,200.01220703125,2010,-3.66265060240964,2351,0.445783132530121,1296,9.04819277108434,5424,-3.32556713672594,448,0.274678111587983,-15024,9.21152667075414,-51,-1.22137404580153,80,0.778625954198473,-59,0.900763358778626,43374,99.7340550782378,26921,26.061519518657,49152,-3317.8500331785,1493933658998,
7106231,400.0244140625,2007,-3.62650602409639,2348,0.481927710843373,1295,9.06024096385542,5392,-3.30594727161251,384,0.235438381361128,-15056,9.23114653586757,-74,-0.641221374045801,42,1.12977099236641,-30,0.458015267175573,43372,99.7282868590031,26921,26.061519518657,49152,-3317.8500331785,1493933659000,
7112785,600.03662109375,2007,-3.68674698795181,2353,0.481927710843373,1297,9.03614457831325,5408,-3.31575720416922,384,0.235438381361128,-15104,9.26057633353771,-60,-1.0381679389313,68,0.916030534351145,-38,0.580152671755725,43371,99.725402750485,26921,26.061519518657,49152,-3317.8500331785,1493933659104,
7119339,800.048828125,2012,-3.65060240963855,2350,0.421686746987952,1298,9.02409638554217,5440,-3.33537706928265,384,0.235438381361128,-15120,9.27038626609442,-74,-0.931297709923664,61,1.12977099236641,-50,0.763358778625954,43371,99.7288395051758,26923,26.0734237029589,49152,-3317.8500331785,1493933659295,
7125893,1000.06103515625,2009,-3.67469879518072,2352,0.457831325301205,1298,9.02409638554217,5456,-3.34518700183936,432,0.264868179031269,-15152,9.29000613120785,-52,-0.82442748091603,54,0.793893129770992,-35,0.534351145038168,43370,99.7259553202277,26923,26.0734237029589,694,1117.69308147983,1493933659490,
7132447,1200.0732421875,2008,-3.72289156626506,2356,0.469879518072289,1302,8.97590361445783,5488,-3.36480686695279,368,0.225628448804414,-15120,9.27038626609442,-61,-1.12977099236641,74,0.931297709923664,-38,0.580152671755725,43369,99.7230711360123,26923,26.0734237029589,17158,1514.69251741896,1493933659707,
7139001,1400.08544921875,2009,-3.67469879518072,2352,0.457831325301205,1298,9.02409638554217,5536,-3.39423666462293,368,0.225628448804414,-15152,9.29000613120785,-72,-1.14503816793893,75,1.09923664122137,-35,0.534351145038168,43371,99.7288395051758,26923,26.0734237029589,33772,2042.06657137023,1493933659890,
7145555,1600.09765625,2008,-3.71084337349398,2355,0.469879518072289,1300,9,5568,-3.41385652973636,336,0.206008583690987,-15088,9.25076640098099,-49,-0.931297709923664,61,0.748091603053435,-32,0.488549618320611,43369,99.7230711360123,26923,26.0734237029589,50899,2020.68126864836,1493933660107,
7152109,1800.10986328125,2011,-3.68674698795181,2353,0.433734939759036,1297,9.03614457831325,5600,-3.43347639484979,400,0.245248313917842,-15072,9.24095646842428,-53,-1.08396946564885,71,0.809160305343511,-44,0.67175572519084,43369,99.7265075327673,26925,26.0853271162298,50901,2016.96591045236,1493933660319,
7158663,2000.1220703125,2009,-3.72289156626506,2356,0.457831325301205,1298,9.02409638554217,5536,-3.39423666462293,368,0.225628448804414,-15024,9.21152667075414,-87,-0.900763358778626,59,1.32824427480916,-31,0.473282442748092,43370,99.7293917941407,26925,26.0853271162298,50902,2015.11335012594,1493933660507,
7165217,2200.13427734375,2012,-3.69879518072289,2354,0.421686746987952,1297,9.03614457831325,5568,-3.41385652973636,352,0.215818516247701,-15008,9.20171673819742,-35,-1.05343511450382,69,0.534351145038168,-57,0.870229007633588,43369,99.7265075327673,26925,26.0853271162298,50901,2016.96591045236,1493933660705,
7171771,2400.146484375,2010,-3.69879518072289,2354,0.445783132530121,1300,9,5568,-3.41385652973636,384,0.235438381361128,-15072,9.24095646842428,-108,-0.900763358778626,59,1.64885496183206,-9,0.137404580152672,43367,99.7207390122193,26925,26.0853271162298,50901,2016.96591045236,1493933660890,
7178325,2600.15869140625,2011,-3.68674698795181,2353,0.433734939759036,1299,9.01204819277108,5536,-3.39423666462293,448,0.274678111587983,-15088,9.25076640098099,-32,-0.961832061068702,63,0.488549618320611,-61,0.931297709923664,43369,99.7265075327673,26925,26.0853271162298,50900,2018.82188015304,1493933661104,
7184879,2800.1708984375,2010,-3.71084337349398,2355,0.445783132530121,1296,9.04819277108434,5488,-3.36480686695279,416,0.255058246474555,-15072,9.24095646842428,-49,-0.778625954198473,51,0.748091603053435,-54,0.82442748091603,43369,99.7333797158015,26929,26.1091316311298,50898,2022.54408539343,1493933661288,
7191433,3000.18310546875,2008,-3.67469879518072,2352,0.469879518072289,1297,9.03614457831325,5520,-3.38442673206622,336,0.206008583690987,-15072,9.24095646842428,-30,-1.00763358778626,66,0.458015267175573,-58,0.885496183206107,43367,99.7276108866502,26929,26.1091316311298,50897,2024.41033987825,1493933661503,
7197987,3200.1953125,2011,-3.67469879518072,2352,0.433734939759036,1297,9.03614457831325,5536,-3.39423666462293,384,0.235438381361128,-15088,9.25076640098099,-37,-1.26717557251908,83,0.564885496183206,-46,0.702290076335878,43366,99.724726473174,26929,26.1091316311298,50895,2028.15320020265,1493933661687,
7204541,3400.20751953125,2009,-3.69879518072289,2354,0.457831325301205,1295,9.06024096385542,5520,-3.38442673206622,400,0.245248313917842,-15056,9.23114653586757,-49,-0.99236641221374,65,0.748091603053435,-45,0.687022900763359,43367,99.7276108866502,26929,26.1091316311298,50893,2031.90992624573,1493933661879,
7211095,3600.2197265625,2013,-3.67469879518072,2352,0.409638554216868,1299,9.01204819277108,5520,-3.38442673206622,384,0.235438381361128,-15088,9.25076640098099,-7,-1.02290076335878,67,0.106870229007634,-50,0.763358778625954,43369,99.7333797158015,26929,26.1091316311298,50891,2035.68059520044,1493933662089,
7217649,3800.23193359375,2012,-3.69879518072289,2354,0.421686746987952,1297,9.03614457831325,5424,-3.32556713672594,368,0.225628448804414,-15056,9.23114653586757,-68,-0.946564885496183,62,1.0381679389313,-47,0.717557251908397,43369,99.7385333192592,26932,26.1269829960453,50888,2041.36291186538,1493933662304,
7224203,4000.244140625,2012,-3.65060240963855,2350,0.421686746987952,1296,9.04819277108434,5552,-3.40404659717964,304,0.18638871857756,-15056,9.23114653586757,-43,-0.961832061068702,63,0.656488549618321,-38,0.580152671755725,43365,99.7269952010342,26932,26.1269829960453,50885,2047.07704010674,1493933662487,
7230757,4200.25634765625,2009,-3.69879518072289,2354,0.457831325301205,1301,8.98795180722892,5504,-3.3746167995095,368,0.225628448804414,-15088,9.25076640098099,-69,-0.870229007633588,57,1.05343511450382,-36,0.549618320610687,43364,99.7241106733105,26932,26.1269829960453,50883,2050.90426419913,1493933662695,
7237311,4400.2685546875,2013,-3.71084337349398,2355,0.409638554216868,1298,9.02409638554217,5504,-3.3746167995095,432,0.264868179031269,-15104,9.26057633353771,-25,-0.778625954198473,51,0.381679389312977,-50,0.763358778625954,43365,99.7269952010342,26932,26.1269829960453,50880,2056.67200852943,1493933662879,
7243865,4600.28076171875,2012,-3.65060240963855,2350,0.421686746987952,1297,9.03614457831325,5520,-3.38442673206622,432,0.264868179031269,-15152,9.29000613120785,-66,-1.17557251908397,77,1.00763358778626,-51,0.778625954198473,43365,99.7269952010342,26932,26.1269829960453,50876,2064.4129882956,1493933663088,
7250419,4800.29296875,2008,-3.69879518072289,2354,0.469879518072289,1296,9.04819277108434,5488,-3.36480686695279,336,0.206008583690987,-15120,9.27038626609442,-84,-0.778625954198473,51,1.2824427480916,-55,0.83969465648855,43365,99.7321478844541,26935,26.1448326298105,50874,2068.30537122358,1493933663286,
7256973,5000.30517578125,2010,-3.66265060240964,2351,0.445783132530121,1299,9.01204819277108,5440,-3.33537706928265,384,0.235438381361128,-15056,9.23114653586757,-89,-0.702290076335878,46,1.3587786259542,-37,0.564885496183206,43363,99.7263785983345,26935,26.1448326298105,50871,2074.17154477244,1493933663495,
7263527,5200.3173828125,2011,-3.67469879518072,2352,0.433734939759036,1296,9.04819277108434,5408,-3.31575720416922,352,0.215818516247701,-15024,9.21152667075414,-35,-1.37404580152672,90,0.534351145038168,-69,1.05343511450382,43363,99.7263785983345,26935,26.1448326298105,50868,2080.07108850952,1493933663680,
7270081,5400.32958984375,2013,-3.67469879518072,2352,0.409638554216868,1299,9.01204819277108,5472,-3.35499693439608,320,0.196198651134273,-15104,9.26057633353771,-88,-1.06870229007634,70,1.34351145038168,-52,0.793893129770992,43361,99.7206093151472,26935,26.1448326298105,50865,2086.00428799041,1493933663888,
7276635,5600.341796875,2008,-3.71084337349398,2355,0.469879518072289,1296,9.04819277108434,5504,-3.3746167995095,400,0.245248313917842,-15072,9.24095646842428,-51,-1.0381679389313,68,0.778625954198473,-70,1.06870229007634,43364,99.7292632410278,26935,26.1448326298105,50862,2091.97143203812,1493933664104,
7283189,5800.35400390625,2010,-3.69879518072289,2354,0.445783132530121,1300,9,5456,-3.34518700183936,448,0.274678111587983,-15088,9.25076640098099,-60,-0.931297709923664,61,0.916030534351145,-40,0.610687022900763,43364,99.7378498387598,26940,26.1745781757338,50860,2095.9685302901,1493933664288,
7289743,6000.3662109375,2011,-3.68674698795181,2353,0.433734939759036,1296,9.04819277108434,5552,-3.40404659717964,352,0.215818516247701,-15088,9.25076640098099,-110,-1.12977099236641,74,1.6793893129771,-58,0.885496183206107,43363,99.7349650032528,26940,26.1745781757338,50857,2101.99289946799,1493933664482,
7296297,6200.37841796875,2010,-3.71084337349398,2355,0.445783132530121,1299,9.01204819277108,5616,-3.4432863274065,336,0.206008583690987,-15072,9.24095646842428,-78,-1.29770992366412,85,1.19083969465649,-82,1.25190839694656,43362,99.7320801684789,26940,26.1745781757338,50855,2106.02842211717,1493933664690,
7302851,6400.390625,2008,-3.87951807228916,2369,0.469879518072289,1292,9.09638554216868,5552,-3.40404659717964,368,0.225628448804414,-14992,9.19190680564071,-520,-1.43511450381679,94,7.93893129770992,-137,2.09160305343511,43363,99.7349650032528,26940,26.1745781757338,50853,2110.07946981299,1493933664906,
7309405,6600.40283203125,2015,-4.13253012048193,2390,0.385542168674699,1314,8.83132530120482,5904,-3.61986511342735,368,0.225628448804414,-14944,9.16247700797057,-316,-4.15267175572519,272,4.82442748091603,-244,3.72519083969466,43361,99.7291953344383,26940,26.1745781757338,50851,2114.14613231764,1493933665090,
7315959,6800.4150390625,2017,-4.13253012048193,2390,0.36144578313253,1311,8.86746987951807,6144,-3.76701410177805,336,0.206008583690987,-14960,9.17228694052728,-114,-0.732824427480916,48,1.74045801526718,-87,1.32824427480916,43361,99.7326293871415,26942,26.186475049867,50850,2116.18534736336,1493933665308,
7322513,7000.42724609375,2013,-4.04819277108434,2383,0.409638554216868,1309,8.89156626506024,6224,-3.81606376456162,288,0.176578786020846,-14864,9.113427345187,17,-0.0763358778625954,5,-0.259541984732824,-6,0.0916030534351145,43362,99.7355142982993,26942,26.186475049867,50849,2118.22850008664,1493933665491,
7329067,7200.439453125,2007,-4.10843373493976,2388,0.481927710843373,1311,8.86746987951807,6208,-3.8062538320049,384,0.235438381361128,-14784,9.06437768240343,-52,-1.16030534351145,76,0.793893129770992,-39,0.595419847328244,43361,99.7326293871415,26942,26.186475049867,50849,2118.22850008664,1493933665691,
7335621,7400.45166015625,2013,-4.02409638554217,2381,0.409638554216868,1309,8.89156626506024,6208,-3.8062538320049,384,0.235438381361128,-14864,9.113427345187,8,-1.41984732824427,93,-0.122137404580153,-73,1.11450381679389,43361,99.7326293871415,26942,26.186475049867,50848,2120.27560190384,1493933665887,
7342175,7600.4638671875,2008,-4.06024096385542,2384,0.469879518072289,1311,8.86746987951807,6176,-3.78663396689148,368,0.225628448804414,-14800,9.07418761496015,-59,-1.40458015267176,92,0.900763358778626,-87,1.32824427480916,43361,99.7326293871415,26942,26.186475049867,50847,2122.32666427551,1493933666104,
7348729,7800.47607421875,2014,-4,2379,0.397590361445783,1310,8.87951807228916,6096,-3.73758430410791,352,0.215818516247701,-14816,9.08399754751686,-64,-0.977099236641221,64,0.977099236641221,-45,0.687022900763359,43361,99.7360632371124,26944,26.1983711564069,50846,2124.38169870659,1493933666289,
7355283,8000.48828125,2009,-4.02409638554217,2381,0.457831325301205,1310,8.87951807228916,6080,-3.7277743715512,416,0.255058246474555,-14816,9.08399754751686,-39,-0.977099236641221,64,0.595419847328244,-38,0.580152671755725,43361,99.7360632371124,26944,26.1983711564069,50844,2128.50372998994,1493933666505,
7361837,8200.50048828125,2008,-4.01204819277108,2380,0.469879518072289,1302,8.97590361445783,6144,-3.76701410177805,304,0.18638871857756,-14800,9.07418761496015,-5,-1.20610687022901,79,0.0763358778625954,-99,1.51145038167939,43361,99.7360632371124,26944,26.1983711564069,50843,2130.57075007595,1493933666691,
7368391,8400.5126953125,2013,-4.02409638554217,2381,0.409638554216868,1308,8.90361445783133,6128,-3.75720416922134,384,0.235438381361128,-14832,9.09380748007357,37,-0.916030534351145,60,-0.564885496183206,-57,0.870229007633588,43361,99.7360632371124,26944,26.1983711564069,50841,2134.71685756016,1493933666883,
7374945,8600.52490234375,2009,-3.97590361445783,2377,0.457831325301205,1306,8.92771084337349,6064,-3.71796443899448,416,0.255058246474555,-14800,9.07418761496015,14,-0.961832061068702,63,-0.213740458015267,-43,0.656488549618321,43361,99.7360632371124,26944,26.1983711564069,50839,2138.87913322351,1493933667105,
7381499,8800.537109375,2011,-3.98795180722892,2378,0.433734939759036,1308,8.90361445783133,5968,-3.6591048436542,352,0.215818516247701,-14880,9.12323727774372,-63,-1.09923664122137,72,0.961832061068702,-39,0.595419847328244,43361,99.7394968844388,26946,26.2102664957139,50838,2140.96636370565,1493933667292,
7388053,9000.54931640625,2014,-3.95180722891566,2375,0.397590361445783,1307,8.91566265060241,6016,-3.68853464132434,352,0.215818516247701,-14896,9.13304721030043,-39,-1.02290076335878,67,0.595419847328244,-27,0.412213740458015,43361,99.7394968844388,26946,26.2102664957139,50837,2143.05767182501,1493933667506,
7394607,9200.5615234375,2012,-3.96385542168675,2376,0.421686746987952,1305,8.93975903614458,5968,-3.6591048436542,368,0.225628448804414,-14848,9.10361741263029,-51,-0.793893129770992,52,0.778625954198473,-32,0.488549618320611,43361,99.7394968844388,26946,26.2102664957139,50836,2145.15306954243,1493933667691,
7401161,9400.57373046875,2012,-3.93975903614458,2374,0.421686746987952,1306,8.92771084337349,5984,-3.66891477621091,416,0.255058246474555,-14864,9.113427345187,-49,-1.02290076335878,67,0.748091603053435,-53,0.809160305343511,43361,99.7394968844388,26946,26.2102664957139,50834,2149.35618184929,1493933667905,
7407715,9600.5859375,2011,-3.89156626506024,2370,0.433734939759036,1304,8.95180722891566,5904,-3.61986511342735,448,0.274678111587983,-14816,9.08399754751686,-36,-1.14503816793893,75,0.549618320610687,-53,0.809160305343511,43361,99.7394968844388,26946,26.2102664957139,50834,2149.35618184929,1493933668089,
7414269,9800.59814453125,2005,-3.97590361445783,2377,0.506024096385542,1307,8.91566265060241,5904,-3.61986511342735,352,0.215818516247701,-14896,9.13304721030043,22,-0.717557251908397,47,-0.33587786259542,-9,0.137404580152672,43361,99.7463635715101,26950,26.2340548740711,50834,2149.35618184929,1493933668280,
7420823,10000.6103515625,2018,-3.83132530120482,2365,0.349397590361446,1305,8.93975903614458,5872,-3.60024524831392,384,0.235438381361128,-14944,9.16247700797057,73,-0.351145038167939,23,-1.11450381679389,75,-1.14503816793893,43361,99.7463635715101,26950,26.2340548740711,50832,2153.57579725376,1493933668488,
7427377,10200.6225585938,2008,-3.85542168674699,2367,0.469879518072289,1302,8.97590361445783,5808,-3.56100551808706,336,0.206008583690987,-14960,9.17228694052728,-7,-1.3587786259542,89,0.106870229007634,-36,0.549618320610687,43353,99.7232818412854,26950,26.2340548740711,50832,2153.57579725376,1493933668696,
7433931,10400.634765625,2012,-3.89156626506024,2370,0.421686746987952,1303,8.96385542168675,5760,-3.53157572041692,336,0.206008583690987,-15008,9.20171673819742,-55,-1.05343511450382,69,0.83969465648855,-92,1.40458015267176,43353,99.7232818412854,26950,26.2340548740711,50831,2155.69182402139,1493933668881,
7440485,10600.6469726563,2015,-3.79518072289157,2362,0.385542168674699,1305,8.93975903614458,5760,-3.53157572041692,224,0.137339055793991,-14896,9.13304721030043,231,-0.137404580152672,9,-3.52671755725191,-16,0.244274809160305,43354,99.7261670549967,26950,26.2340548740711,50830,2157.81201314366,1493933669088,
7447039,10800.6591796875,2025,-3.74698795180723,2358,0.265060240963855,1299,9.01204819277108,5584,-3.42366646229307,224,0.137339055793991,-15024,9.21152667075414,135,-2.94656488549618,193,-2.06106870229008,-221,3.37404580152672,43354,99.7313157295478,26953,26.251894146532,50829,2159.93637691408,1493933669305,
7453593,11000.6713867188,2004,-3.7710843373494,2360,0.518072289156627,1300,9,5632,-3.45309625996321,368,0.225628448804414,-15184,9.30962599632127,-48,-0.67175572519084,44,0.732824427480916,20,-0.305343511450382,43361,99.7515130555257,26953,26.251894146532,50828,2162.0649276746,1493933669489,
7460147,11200.68359375,2012,-3.62650602409639,2348,0.421686746987952,1296,9.04819277108434,5440,-3.33537706928265,288,0.176578786020846,-15152,9.29000613120785,225,-0.381679389312977,25,-3.43511450381679,-15,0.229007633587786,43354,99.7313157295478,26953,26.251894146532,50827,2164.19767781589,1493933669684,
7466701,11400.6958007813,2019,-3.5421686746988,2341,0.337349397590361,1293,9.08433734939759,5344,-3.27651747394237,304,0.18638871857756,-15184,9.30962599632127,-18,-0.641221374045801,42,0.274809160305344,62,-0.946564885496183,43353,99.7284304001989,26953,26.251894146532,50826,2166.33463977754,1493933669895,
7473255,11600.7080078125,2015,-3.49397590361446,2337,0.385542168674699,1292,9.09638554216868,5232,-3.20784794604537,304,0.18638871857756,-15152,9.29000613120785,303,-3.02290076335878,198,-4.62595419847328,-135,2.06106870229008,43353,99.7284304001989,26953,26.251894146532,50824,2170.62124916648,1493933670080,
7479809,11800.7202148438,1989,-3.40963855421687,2330,0.698795180722892,1287,9.1566265060241,5168,-3.16860821581852,464,0.284488044144696,-15168,9.29981606376456,215,0.946564885496183,-62,-3.2824427480916,-6,0.0916030534351145,43353,99.7301464853833,26954,26.2578401878194,50823,2172.77092171984,1493933670292,
7486363,12000.732421875,2019,-3.16867469879518,2310,0.337349397590361,1276,9.28915662650602,4784,-2.93316983445739,208,0.127529123237278,-15392,9.43715511955855,119,-0.0610687022900763,4,-1.81679389312977,-26,0.396946564885496,43353,99.7301464853833,26954,26.2578401878194,50822,2174.92485634621,1493933670508,
7492917,12200.7446289063,1998,-3.21686746987952,2314,0.590361445783133,1276,9.28915662650602,4848,-2.97240956468424,320,0.196198651134273,-15344,9.40772532188841,204,1.20610687022901,-79,-3.11450381679389,90,-1.37404580152672,43351,99.7243757517991,26954,26.2578401878194,50820,2179.24556262019,1493933670691,
7499471,12400.7568359375,2046,-2.86746987951807,2285,0.0120481927710843,1266,9.40963855421687,4512,-2.76640098099326,-64,-0.0392397302268547,-15488,9.49601471489883,-7,0.16793893129771,-11,0.106870229007634,198,-3.02290076335878,43349,99.7186050211488,26954,26.2578401878194,50819,2181.41235979517,1493933670889,
7506025,12600.7690429688,2018,-2.4578313253012,2251,0.349397590361446,1314,8.83132530120482,4560,-2.7958307786634,576,0.353157572041692,-16176,9.91784181483752,185,4.82442748091603,-316,-2.82442748091603,251,-3.83206106870229,43349,99.7186050211488,26954,26.2578401878194,50818,2183.58347009844,1493933671104,
7512579,12800.78125,1983,-2.4578313253012,2251,0.771084337349398,1216,10.0120481927711,3824,-2.34457388105457,704,0.431637032495402,-15968,9.79031269160024,541,6.90076335877863,-452,-8.25954198473282,438,-6.68702290076336,43349,99.7288995463195,26960,26.2935124185929,50817,2185.7589064211,1493933671289,
7519133,13000.7934570313,1946,-3.10843373493976,2305,1.21686746987952,1267,9.39759036144578,4112,-2.52115266707541,1664,1.02023298589822,-16176,9.91784181483752,479,21.0076335877863,-1376,-7.31297709923664,1843,-28.1374045801527,43351,99.7346707394407,26960,26.2935124185929,50816,2187.93868170568,1493933671499,
7525687,13200.8056640625,1942,-2.09638554216868,2221,1.26506024096386,1246,9.65060240963856,3440,-2.10913549969344,1712,1.04966278356836,-15824,9.70202329858982,596,12.5190839694656,-820,-9.09923664122137,1633,-24.9312977099237,43349,99.7288995463195,26960,26.2935124185929,50814,2192.31130118937,1493933671715,
7532241,13400.8178710938,1933,-2.65060240963855,2267,1.37349397590361,1276,9.28915662650602,3696,-2.26609442060086,1712,1.04966278356836,-16048,9.83936235438381,-442,28.5648854961832,-1871,6.74809160305344,1674,-25.5572519083969,43351,99.7346707394407,26960,26.2935124185929,50814,2192.31130118937,1493933671906,
7538795,13600.830078125,1855,-2.27710843373494,2236,2.31325301204819,1326,8.68674698795181,3456,-2.11894543225015,2528,1.54996934396076,-15456,9.47639484978541,441,31.2519083969466,-2047,-6.73282442748092,2523,-38.5190839694656,43348,99.7260139508592,26960,26.2935124185929,50813,2194.50417153298,1493933672095,
7545349,13800.8422851563,1820,-2.66265060240964,2268,2.73493975903614,1251,9.59036144578313,3568,-2.18761496014715,3760,2.30533415082771,-14992,9.19190680564071,1418,20.8702290076336,-1367,-21.6488549618321,3668,-56,43348,99.7242983614425,26959,26.2875675247813,50812,2196.70143312801,1493933672292,
7551903,14000.8544921875,1730,-2.71084337349398,2272,3.81927710843374,1349,8.40963855421687,3920,-2.40343347639485,5120,3.13917841814837,-15424,9.45677498467198,376,39.206106870229,-2568,-5.74045801526718,3998,-61.0381679389313,43348,99.7242983614425,26959,26.2875675247813,50810,2201.10918293947,1493933672507,
7558457,14200.8666992188,1814,-3.09638554216868,2304,2.80722891566265,1420,7.55421686746988,3840,-2.35438381361128,5120,3.13917841814837,-13776,8.44635193133047,1370,18.1221374045802,-1187,-20.9160305343511,3858,-58.9007633587786,43348,99.7242983614425,26959,26.2875675247813,50809,2203.31969772216,1493933672691,
7565011,14400.87890625,1888,-3.80722891566265,2363,1.91566265060241,1368,8.18072289156627,4928,-3.02145922746781,3920,2.40343347639485,-13104,8.0343347639485,939,-16.5954198473282,1087,-14.3358778625954,3184,-48.6106870229008,43348,99.7242983614425,26959,26.2875675247813,50807,2207.7540738582,1493933672907,
7571565,14600.8911132813,1881,-4.04819277108434,2383,2,1308,8.90361445783133,5856,-3.5904353157572,3312,2.03065603923973,-13808,8.4659717964439,811,-22.1221374045802,1449,-12.381679389313,1524,-23.2671755725191,43348,99.7242983614425,26959,26.2875675247813,50806,2209.97796209976,1493933673091,
7578119,14800.9033203125,2038,-2.98795180722892,2295,0.108433734939759,1173,10.5301204819277,5264,-3.2274678111588,1392,0.853464132434089,-16352,10.0257510729614,974,-3.45038167938931,226,-14.8702290076336,502,-7.66412213740458,43348,99.7311604163326,26963,26.3113459536735,50805,2212.20633513953,1493933673307,
7584673,15000.9155273438,1977,-0.265060240963855,2069,0.843373493975904,975,12.9156626506024,4608,-2.82526057633354,800,0.490496627835684,-16080,9.85898221949724,1491,-29.9083969465649,1959,-22.763358778626,-1737,26.5190839694656,43346,99.7253889964099,26963,26.3113459536735,50803,2216.67658998887,1493933673506,
7591227,15200.927734375,2131,-5.87951807228916,2535,-1.01204819277108,1303,8.96385542168675,2944,-1.80502759043532,-720,-0.441446965052115,-15152,9.29000613120785,-720,-24.1526717557252,1582,10.9923664122137,411,-6.27480916030534,43346,99.7253889964099,26963,26.3113459536735,50802,2218.91849912353,1493933673690,
7597781,15400.9399414063,1955,-2.98795180722892,2295,1.10843373493976,1246,9.65060240963856,4880,-2.99202942979767,-416,-0.255058246474555,-15120,9.27038626609442,475,1.46564885496183,-96,-7.25190839694656,325,-4.9618320610687,43345,99.7225032875489,26963,26.3113459536735,50800,2223.41594954091,1493933673905,
7604335,15600.9521484375,2060,-2.95180722891566,2292,-0.156626506024096,1282,9.21686746987952,4416,-2.70754138565297,64,0.0392397302268547,-15312,9.38810545677498,34,2.18320610687023,-143,-0.519083969465649,87,-1.32824427480916,43345,99.7225032875489,26963,26.3113459536735,50801,2221.16494770711,1493933674089,
7610889,15800.9643554688,1984,-3.25301204819277,2317,0.759036144578313,1292,9.09638554216868,4528,-2.77621091354997,-224,-0.137339055793991,-15232,9.33905579399141,409,-0.351145038167939,23,-6.2442748091603,-104,1.58778625954198,43345,99.7259337811413,26965,26.3232340222136,50801,2221.16494770711,1493933674298,
7617443,16000.9765625,2035,-2.97590361445783,2294,0.144578313253012,1287,9.1566265060241,4720,-2.89393010423053,240,0.147148988350705,-15296,9.37829552421827,-195,2.58015267175573,-169,2.97709923664122,282,-4.30534351145038,43346,99.7288195670639,26965,26.3232340222136,50802,2218.91849912353,1493933674481,
7623997,16200.9887695313,2028,-3.44578313253012,2333,0.228915662650602,1289,9.13253012048193,4736,-2.90374003678725,-32,-0.0196198651134273,-15424,9.45677498467198,-1177,1.95419847328244,-128,17.969465648855,723,-11.0381679389313,43346,99.7288195670639,26965,26.3232340222136,50802,2218.91849912353,1493933674685,
7630551,16401.0009765625,1960,-3.53012048192771,2340,1.04819277108434,1291,9.10843373493976,5296,-3.24708767627223,800,0.490496627835684,-15264,9.35867565910484,300,-4.48854961832061,294,-4.58015267175572,-439,6.70229007633588,43344,99.7230479959524,26965,26.3232340222136,50802,2218.91849912353,1493933674894,
7637105,16601.0131835938,2022,-3.71084337349398,2355,0.301204819277108,1302,8.97590361445783,5376,-3.29613733905579,496,0.304107909258124,-15056,9.23114653586757,167,-0.748091603053435,49,-2.54961832061069,-339,5.17557251908397,43345,99.7259337811413,26965,26.3232340222136,50802,2218.91849912353,1493933675083,
7643659,16801.025390625,1956,-3.6144578313253,2347,1.09638554216867,1289,9.13253012048193,5344,-3.27651747394237,592,0.362967504598406,-15168,9.29981606376456,138,0.137404580152672,-9,-2.10687022900763,45,-0.687022900763359,43345,99.729364073086,26967,26.3351213272942,50802,2218.91849912353,1493933675293,
7650213,17001.0375976563,2043,-3.56626506024096,2343,0.0481927710843374,1293,9.08433734939759,5392,-3.30594727161251,-112,-0.0686695278969957,-15216,9.3292458614347,31,-0.16793893129771,11,-0.473282442748092,76,-1.16030534351145,43345,99.729364073086,26967,26.3351213272942,50801,2221.16494770711,1493933675483,
7656767,17201.0498046875,2012,-3.5421686746988,2341,0.421686746987952,1294,9.07228915662651,5248,-3.21765787860208,208,0.127529123237278,-15280,9.36848559166156,-79,-0.473282442748092,31,1.20610687022901,-29,0.442748091603053,43344,99.7264782108402,26967,26.3351213272942,50800,2223.41594954091,1493933675693,
7663321,17401.0620117188,2013,-3.39759036144578,2329,0.409638554216868,1289,9.13253012048193,5184,-3.17841814837523,208,0.127529123237278,-15248,9.34886572654813,-42,-0.549618320610687,36,0.641221374045801,-44,0.67175572519084,43343,99.7235923493281,26967,26.3351213272942,50799,2225.6715184822,1493933675907,
7669875,17601.07421875,2007,-3.44578313253012,2333,0.481927710843373,1290,9.12048192771084,5200,-3.18822808093194,336,0.206008583690987,-15248,9.34886572654813,-198,-0.977099236641221,64,3.02290076335878,-40,0.610687022900763,43344,99.7264782108402,26967,26.3351213272942,50797,2230.19641339813,1493933676106,
7676429,17801.0864257813,2015,-3.62650602409639,2348,0.385542168674699,1295,9.06024096385542,5312,-3.25689760882894,256,0.156958920907419,-15184,9.30962599632127,-294,-0.763358778625954,50,4.48854961832061,1,-0.0152671755725191,43344,99.7299082241725,26969,26.3470078692734,50796,2232.46576736992,1493933676290,
7682983,18001.0986328125,2012,-3.63855421686747,2349,0.421686746987952,1297,9.03614457831325,5504,-3.3746167995095,320,0.196198651134273,-15040,9.22133660331085,-104,-0.625954198473282,41,1.58778625954198,-61,0.931297709923664,43344,99.7299082241725,26969,26.3470078692734,50795,2234.7397444441,1493933676506,
7689537,18201.1108398438,2014,-3.67469879518072,2352,0.397590361445783,1295,9.06024096385542,5456,-3.34518700183936,368,0.225628448804414,-15200,9.31943592887799,-52,-0.854961832061069,56,0.793893129770992,-42,0.641221374045801,43346,99.735680103502,26969,26.3470078692734,50793,2239.30162452376,1493933676689,
7696091,18401.123046875,2018,-3.72289156626506,2356,0.349397590361446,1299,9.01204819277108,5472,-3.35499693439608,288,0.176578786020846,-15184,9.30962599632127,-118,-1.19083969465649,78,1.80152671755725,-52,0.793893129770992,43343,99.7270222856084,26969,26.3470078692734,50792,2241.58955598594,1493933676908,
7702645,18601.1352539063,2011,-3.73493975903614,2357,0.433734939759036,1297,9.03614457831325,5536,-3.39423666462293,336,0.206008583690987,-15088,9.25076640098099,-106,-1.0381679389313,68,1.61832061068702,-44,0.67175572519084,43342,99.724136347778,26969,26.3470078692734,50791,2243.88216746452,1493933677092,
7709199,18801.1474609375,2011,-3.74698795180723,2358,0.433734939759036,1299,9.01204819277108,5680,-3.48252605763335,240,0.147148988350705,-15136,9.28019619865113,-89,-0.961832061068702,63,1.3587786259542,-31,0.473282442748092,43342,99.7292807589122,26972,26.3648362522096,50790,2246.17947333381,1493933677290,
7715753,19001.1596679688,2017,-3.7710843373494,2360,0.36144578313253,1300,9,5664,-3.47271612507664,320,0.196198651134273,-15040,9.22133660331085,-72,-0.870229007633588,57,1.09923664122137,-70,1.06870229007634,43343,99.7321668123117,26972,26.3648362522096,50790,2246.17947333381,1493933677505,
7722307,19201.171875,2015,-3.75903614457831,2359,0.385542168674699,1299,9.01204819277108,5696,-3.49233599019007,240,0.147148988350705,-15008,9.20171673819742,-128,-1.26717557251908,83,1.95419847328244,-64,0.977099236641221,43341,99.7263947062465,26972,26.3648362522096,50790,2246.17947333381,1493933677689,
7728861,19401.1840820313,2014,-3.85542168674699,2367,0.397590361445783,1304,8.95180722891566,5680,-3.48252605763335,272,0.166768853464132,-15056,9.23114653586757,-141,-0.885496183206107,58,2.15267175572519,-21,0.320610687022901,43340,99.7235086543146,26972,26.3648362522096,50789,2248.48148802706,1493933677903,
7735415,19601.1962890625,2012,-3.85542168674699,2367,0.421686746987952,1303,8.96385542168675,5744,-3.52176578786021,320,0.196198651134273,-15024,9.21152667075414,-56,-0.916030534351145,60,0.854961832061069,-35,0.534351145038168,43338,99.7177365526521,26972,26.3648362522096,50789,2248.48148802706,1493933678090,
7741969,19801.2084960938,2011,-3.78313253012048,2361,0.433734939759036,1304,8.95180722891566,5840,-3.58062538320049,176,0.10790925812385,-15024,9.21152667075414,-64,-0.916030534351145,60,0.977099236641221,-14,0.213740458015267,43338,99.726308794349,26977,26.3945464133291,50789,2248.48148802706,1493933678299,
7748523,20001.220703125,2016,-3.85542168674699,2367,0.373493975903614,1302,8.97590361445783,5792,-3.55119558553035,304,0.18638871857756,-14928,9.15266707541386,-92,-1.05343511450382,69,1.40458015267176,-12,0.183206106870229,43342,99.7378537709741,26977,26.3945464133291,50790,2246.17947333381,1493933678495,
7755077,20201.2329101563,2016,-3.85542168674699,2367,0.373493975903614,1304,8.95180722891566,5776,-3.54138565297364,336,0.206008583690987,-15008,9.20171673819742,-91,-0.99236641221374,65,1.38931297709924,-35,0.534351145038168,43341,99.734967525717,26977,26.3945464133291,50791,2243.88216746452,1493933678692,
7761631,20401.2451171875,2016,-3.86746987951807,2368,0.373493975903614,1303,8.96385542168675,5792,-3.55119558553035,304,0.18638871857756,-14944,9.16247700797057,-50,-1.14503816793893,75,0.763358778625954,-51,0.778625954198473,43338,99.726308794349,26977,26.3945464133291,50792,2241.58955598594,1493933678884,
7768185,20601.2573242188,2013,-3.85542168674699,2367,0.409638554216868,1305,8.93975903614458,5792,-3.55119558553035,256,0.156958920907419,-14944,9.16247700797057,-79,-0.763358778625954,50,1.20610687022901,-29,0.442748091603053,43341,99.734967525717,26977,26.3945464133291,50793,2239.30162452376,1493933679092,
7774739,20801.26953125,2015,-3.87951807228916,2369,0.385542168674699,1304,8.95180722891566,5808,-3.56100551808706,304,0.18638871857756,-14992,9.19190680564071,-81,-1.08396946564885,71,1.23664122137405,-46,0.702290076335878,43341,99.734967525717,26977,26.3945464133291,50793,2239.30162452376,1493933679308,
7781293,21001.2817382813,2014,-3.86746987951807,2368,0.397590361445783,1305,8.93975903614458,5840,-3.58062538320049,272,0.166768853464132,-14976,9.182096873084,-32,-0.702290076335878,46,0.488549618320611,-47,0.717557251908397,43339,99.7291950374044,26977,26.3945464133291,50793,2239.30162452376,1493933679492,
7787847,21201.2939453125,2014,-3.80722891566265,2363,0.397590361445783,1302,8.97590361445783,5856,-3.5904353157572,288,0.176578786020846,-14928,9.15266707541386,-6,-0.946564885496183,62,0.0916030534351145,-62,0.946564885496183,43338,99.726308794349,26977,26.3945464133291,50794,2237.01835876227,1493933679708,
7794401,21401.3061523438,2013,-3.83132530120482,2365,0.409638554216868,1303,8.96385542168675,5792,-3.55119558553035,240,0.147148988350705,-14944,9.16247700797057,-76,-1.02290076335878,67,1.16030534351145,-35,0.534351145038168,43338,99.726308794349,26977,26.3945464133291,50793,2239.30162452376,1493933679906,
7800955,21601.318359375,2014,-3.81927710843374,2364,0.397590361445783,1303,8.96385542168675,5792,-3.55119558553035,288,0.176578786020846,-14960,9.17228694052728,-42,-1.00763358778626,66,0.641221374045801,-51,0.778625954198473,43340,99.7320812811938,26977,26.3945464133291,50793,2239.30162452376,1493933680090,
7807509,21801.3305664063,2011,-3.8433734939759,2366,0.433734939759036,1304,8.95180722891566,5792,-3.55119558553035,304,0.18638871857756,-14976,9.182096873084,-60,-0.977099236641221,64,0.916030534351145,-47,0.717557251908397,43340,99.7355099799427,26979,26.4064291451642,50793,2239.30162452376,1493933680305,
7814063,22001.3427734375,2013,-3.85542168674699,2367,0.409638554216868,1303,8.96385542168675,5776,-3.54138565297364,336,0.206008583690987,-14944,9.16247700797057,-54,-1.14503816793893,75,0.82442748091603,-54,0.82442748091603,43336,99.7239647010762,26979,26.4064291451642,50793,2239.30162452376,1493933680489,
7820617,22201.3549804688,2015,-3.87951807228916,2369,0.385542168674699,1304,8.95180722891566,5792,-3.55119558553035,256,0.156958920907419,-14976,9.182096873084,-88,-0.946564885496183,62,1.34351145038168,-44,0.67175572519084,43338,99.7297373390416,26979,26.4064291451642,50794,2237.01835876227,1493933680697,
7827171,22401.3671875,2012,-3.87951807228916,2369,0.421686746987952,1305,8.93975903614458,5824,-3.57081545064378,416,0.255058246474555,-14928,9.15266707541386,-59,-1.00763358778626,66,0.900763358778626,-48,0.732824427480916,43338,99.7297373390416,26979,26.4064291451642,50795,2234.7397444441,1493933680881,
7833725,22601.3793945313,2016,-3.87951807228916,2369,0.373493975903614,1304,8.95180722891566,5840,-3.58062538320049,368,0.225628448804414,-14944,9.16247700797057,-68,-1.05343511450382,69,1.0381679389313,-39,0.595419847328244,43337,99.7268510196919,26979,26.4064291451642,50795,2234.7397444441,1493933681081,
7840279,22801.3916015625,2015,-3.89156626506024,2370,0.385542168674699,1306,8.92771084337349,5792,-3.55119558553035,320,0.196198651134273,-14928,9.15266707541386,-48,-1.05343511450382,69,0.732824427480916,-38,0.580152671755725,43337,99.7302792863567,26981,26.4183111160416,50796,2232.46576736992,1493933681290,
7846833,23001.4038085938,2016,-3.85542168674699,2367,0.373493975903614,1302,8.97590361445783,5808,-3.56100551808706,352,0.215818516247701,-14864,9.113427345187,-64,-0.778625954198473,51,0.977099236641221,-41,0.625954198473282,43337,99.7302792863567,26981,26.4183111160416,50796,2232.46576736992,1493933681504,
7853387,23201.416015625,2016,-3.87951807228916,2369,0.373493975903614,1304,8.95180722891566,5808,-3.56100551808706,320,0.196198651134273,-14960,9.17228694052728,-65,-1.00763358778626,66,0.99236641221374,-39,0.595419847328244,43336,99.7273928907176,26981,26.4183111160416,50796,2232.46576736992,1493933681689,
7859941,23401.4282226563,2015,-3.87951807228916,2369,0.385542168674699,1303,8.96385542168675,5856,-3.5904353157572,352,0.215818516247701,-14960,9.17228694052728,-59,-1.00763358778626,66,0.900763358778626,-59,0.900763358778626,43334,99.7216201016415,26981,26.4183111160416,50797,2230.19641339813,1493933681896,
7866495,23601.4404296875,2016,-3.89156626506024,2370,0.373493975903614,1303,8.96385542168675,5872,-3.60024524831392,304,0.18638871857756,-14880,9.12323727774372,-50,-0.916030534351145,60,0.763358778625954,-57,0.870229007633588,43335,99.7245064958126,26981,26.4183111160416,50798,2227.93166844456,1493933682080,
7873049,23801.4526367188,2015,-3.87951807228916,2369,0.385542168674699,1303,8.96385542168675,5792,-3.55119558553035,336,0.206008583690987,-14992,9.19190680564071,-56,-1.06870229007634,70,0.854961832061069,-45,0.687022900763359,43335,99.7262204767775,26982,26.4242518162325,50797,2230.19641339813,1493933682289,
7879603,24001.46484375,2017,-3.89156626506024,2370,0.36144578313253,1303,8.96385542168675,5776,-3.54138565297364,304,0.18638871857756,-14976,9.182096873084,-42,-1.0381679389313,68,0.641221374045801,-49,0.748091603053435,43336,99.7291069101924,26982,26.4242518162325,33742,2248.70699347875,1493933682485,
7886157,24201.4770507813,2015,-3.90361445783133,2371,0.385542168674699,1304,8.95180722891566,5824,-3.57081545064378,288,0.176578786020846,-14976,9.182096873084,-72,-1.05343511450382,69,1.09923664122137,-56,0.854961832061069,43333,99.7204476121496,26982,26.4242518162325,50799,2225.6715184822,1493933682693,
7892711,24401.4892578125,2012,-3.91566265060241,2372,0.421686746987952,1304,8.95180722891566,5904,-3.61986511342735,272,0.166768853464132,-14944,9.16247700797057,-52,-0.946564885496183,62,0.793893129770992,-40,0.610687022900763,43332,99.7175611809367,26982,26.4242518162325,50799,2225.6715184822,1493933682884,
7899265,24601.5014648438,2017,-3.89156626506024,2370,0.36144578313253,1304,8.95180722891566,5824,-3.57081545064378,224,0.137339055793991,-14944,9.16247700797057,-66,-0.977099236641221,64,1.00763358778626,-53,0.809160305343511,43335,99.7262204767775,26982,26.4242518162325,50799,2225.6715184822,1493933683094,
7905819,24801.513671875,2016,-3.91566265060241,2372,0.373493975903614,1304,8.95180722891566,5856,-3.5904353157572,240,0.147148988350705,-14880,9.12323727774372,-50,-0.870229007633588,57,0.763358778625954,-51,0.778625954198473,43335,99.734789628594,26987,26.4539524664912,50798,2227.93166844456,1493933683282,
7912373,25001.5258789063,2016,-3.87951807228916,2369,0.373493975903614,1304,8.95180722891566,5856,-3.5904353157572,240,0.147148988350705,-15024,9.21152667075414,-42,-1.06870229007634,70,0.641221374045801,-55,0.83969465648855,43333,99.7290163789032,26987,26.4539524664912,50798,2227.93166844456,1493933683490,
7918927,25201.5380859375,2015,-3.90361445783133,2371,0.385542168674699,1305,8.93975903614458,5792,-3.55119558553035,304,0.18638871857756,-14944,9.16247700797057,-63,-1.0381679389313,68,0.961832061068702,-28,0.427480916030534,43335,99.734789628594,26987,26.4539524664912,50797,2230.19641339813,1493933683691,
7925481,25401.5502929688,2016,-3.90361445783133,2371,0.373493975903614,1304,8.95180722891566,5792,-3.55119558553035,224,0.137339055793991,-14960,9.17228694052728,-62,-1.05343511450382,69,0.946564885496183,-47,0.717557251908397,43330,99.7203565098728,26987,26.4539524664912,50797,2230.19641339813,1493933683906,
7932035,25601.5625,2012,-3.87951807228916,2369,0.421686746987952,1304,8.95180722891566,5792,-3.55119558553035,240,0.147148988350705,-14944,9.16247700797057,-46,-1.14503816793893,75,0.702290076335878,-38,0.580152671755725,43332,99.726129755159,26987,26.4539524664912,50796,2232.46576736992,1493933684090,
7938589,25801.5747070313,2015,-3.89156626506024,2370,0.385542168674699,1304,8.95180722891566,5792,-3.55119558553035,240,0.147148988350705,-14992,9.19190680564071,-68,-0.885496183206107,58,1.0381679389313,-49,0.748091603053435,43332,99.7295568336715,26989,26.4658313971004,50795,2234.7397444441,1493933684305,
7945143,26001.5869140625,2016,-3.89156626506024,2370,0.373493975903614,1305,8.93975903614458,5760,-3.53157572041692,256,0.156958920907419,-14928,9.15266707541386,-51,-1.12977099236641,74,0.778625954198473,-47,0.717557251908397,43333,99.73244353442,26989,26.4658313971004,50794,2237.01835876227,1493933684489,
7951697,26201.5991210938,2013,-3.8433734939759,2366,0.409638554216868,1303,8.96385542168675,5872,-3.60024524831392,320,0.196198651134273,-15024,9.21152667075414,-35,-1.25190839694656,82,0.534351145038168,-47,0.717557251908397,43332,99.7295568336715,26989,26.4658313971004,50793,2239.30162452376,1493933684703,
7958251,26401.611328125,2017,-3.89156626506024,2370,0.36144578313253,1304,8.95180722891566,5824,-3.57081545064378,336,0.206008583690987,-14960,9.17228694052728,-39,-1.00763358778626,66,0.595419847328244,-42,0.641221374045801,43332,99.7295568336715,26989,26.4658313971004,50791,2243.88216746452,1493933684895,
7964805,26601.6235351563,2016,-3.87951807228916,2369,0.373493975903614,1305,8.93975903614458,5840,-3.58062538320049,224,0.137339055793991,-14976,9.182096873084,-43,-0.885496183206107,58,0.656488549618321,-37,0.564885496183206,43330,99.723783434377,26989,26.4658313971004,50790,2246.17947333381,1493933685090,
7971359,26801.6357421875,2015,-3.87951807228916,2369,0.385542168674699,1304,8.95180722891566,5856,-3.5904353157572,176,0.10790925812385,-15008,9.20171673819742,-58,-1.12977099236641,74,0.885496183206107,-53,0.809160305343511,43330,99.7254968214238,26990,26.4717705776913,50789,2248.48148802706,1493933685308,
7977913,27001.6479492188,2017,-3.89156626506024,2370,0.36144578313253,1305,8.93975903614458,5840,-3.58062538320049,224,0.137339055793991,-14992,9.19190680564071,-66,-1.02290076335878,67,1.00763358778626,-47,0.717557251908397,43329,99.7226100843775,26990,26.4717705776913,50787,2253.09970191491,1493933685492,
7984467,27201.66015625,2013,-3.89156626506024,2370,0.409638554216868,1303,8.96385542168675,5824,-3.57081545064378,240,0.147148988350705,-14848,9.10361741263029,-52,-1.05343511450382,69,0.793893129770992,-51,0.778625954198473,43330,99.7254968214238,26990,26.4717705776913,50786,2255.41593027337,1493933685708,
7991021,27401.6723632813,2017,-3.86746987951807,2368,0.36144578313253,1303,8.96385542168675,5808,-3.56100551808706,304,0.18638871857756,-14912,9.14285714285714,-51,-0.83969465648855,55,0.778625954198473,-36,0.549618320610687,43328,99.7197233480653,26990,26.4717705776913,50784,2260.06270317964,1493933685892,
7997575,27601.6845703125,2015,-3.90361445783133,2371,0.385542168674699,1305,8.93975903614458,5824,-3.57081545064378,240,0.147148988350705,-14944,9.16247700797057,-67,-0.99236641221374,65,1.02290076335878,-39,0.595419847328244,43330,99.7254968214238,26990,26.4717705776913,50783,2262.39327725313,1493933686108,
8004129,27801.6967773438,2017,-3.91566265060241,2372,0.36144578313253,1304,8.95180722891566,5856,-3.5904353157572,256,0.156958920907419,-14992,9.19190680564071,-34,-1.00763358778626,66,0.519083969465649,-54,0.82442748091603,43330,99.7306366818736,26993,26.489586981142,50782,2264.7286628589,1493933686306,
8010683,28001.708984375,2016,-3.85542168674699,2367,0.373493975903614,1304,8.95180722891566,5824,-3.57081545064378,208,0.127529123237278,-15040,9.22133660331085,-61,-1.08396946564885,71,0.931297709923664,-42,0.641221374045801,43329,99.7277498293335,26993,26.489586981142,50780,2269.41392839182,1493933686504,
8017237,28201.7211914063,2016,-3.90361445783133,2371,0.373493975903614,1304,8.95180722891566,5824,-3.57081545064378,192,0.117719190680564,-14944,9.16247700797057,-47,-0.99236641221374,65,0.717557251908397,-44,0.67175572519084,43328,99.7248629775275,26993,26.489586981142,50779,2271.76383833583,1493933686704,
8023791,28401.7333984375,2014,-3.86746987951807,2368,0.397590361445783,1303,8.96385542168675,5840,-3.58062538320049,272,0.166768853464132,-14944,9.16247700797057,-50,-1.08396946564885,71,0.763358778625954,-51,0.778625954198473,43328,99.7248629775275,26993,26.489586981142,50777,2276.47828808833,1493933686889,
8030345,28601.7456054688,2015,-3.86746987951807,2368,0.385542168674699,1302,8.97590361445783,5760,-3.53157572041692,320,0.196198651134273,-14992,9.19190680564071,-73,-1.05343511450382,69,1.11450381679389,-27,0.412213740458015,43328,99.7248629775275,26993,26.489586981142,50776,2278.84285828879,1493933687098,
8036899,28801.7578125,2017,-3.89156626506024,2370,0.36144578313253,1303,8.96385542168675,5792,-3.55119558553035,208,0.127529123237278,-14976,9.182096873084,-63,-1.06870229007634,70,0.961832061068702,-36,0.549618320610687,43328,99.7248629775275,26993,26.489586981142,50775,2281.21234573872,1493933687284,
8043453,29001.7700195313,2015,-3.86746987951807,2368,0.385542168674699,1303,8.96385542168675,5872,-3.60024524831392,256,0.156958920907419,-15008,9.20171673819742,-39,-0.961832061068702,63,0.595419847328244,-50,0.763358778625954,43328,99.7248629775275,26993,26.489586981142,50774,2283.5867657926,1493933687479,
8050007,29201.7822265625,2017,-3.86746987951807,2368,0.36144578313253,1305,8.93975903614458,5872,-3.60024524831392,208,0.127529123237278,-14944,9.16247700797057,-64,-1.05343511450382,69,0.977099236641221,-60,0.916030534351145,43327,99.7219761264558,26993,26.489586981142,50772,2288.35046545048,1493933687689,
8056561,29401.7944335938,2017,-3.85542168674699,2367,0.36144578313253,1304,8.95180722891566,5824,-3.57081545064378,352,0.215818516247701,-14960,9.17228694052728,-56,-0.931297709923664,61,0.854961832061069,-33,0.50381679389313,43326,99.7190892761183,26993,26.489586981142,50771,2290.73977608477,1493933687897,
8063115,29601.806640625,2015,-3.8433734939759,2366,0.385542168674699,1303,8.96385542168675,5856,-3.5904353157572,192,0.117719190680564,-14944,9.16247700797057,-37,-1.11450381679389,73,0.564885496183206,-43,0.656488549618321,43328,99.7248629775275,26993,26.489586981142,50770,2293.13408138425,1493933688081,
8069669,29801.8188476563,2017,-3.87951807228916,2369,0.36144578313253,1303,8.96385542168675,5744,-3.52176578786021,224,0.137339055793991,-14944,9.16247700797057,-69,-0.885496183206107,58,1.05343511450382,-40,0.610687022900763,43328,99.7300021562018,26996,26.5074016780421,50768,2297.93773875573,1493933688290,
8076223,30001.8310546875,2016,-3.86746987951807,2368,0.373493975903614,1304,8.95180722891566,5792,-3.55119558553035,272,0.166768853464132,-14960,9.17228694052728,-47,-0.977099236641221,64,0.717557251908397,-36,0.549618320610687,43327,99.727115189647,26996,26.5074016780421,50767,2300.34712238077,1493933688505,
8082777,30201.8432617188,2015,-3.86746987951807,2368,0.385542168674699,1302,8.97590361445783,5792,-3.55119558553035,288,0.176578786020846,-14928,9.15266707541386,-76,-0.885496183206107,58,1.16030534351145,-26,0.396946564885496,43328,99.7300021562018,26996,26.5074016780421,50766,2302.76156377774,1493933688689,
8089331,30401.85546875,2015,-3.85542168674699,2367,0.385542168674699,1304,8.95180722891566,5808,-3.56100551808706,256,0.156958920907419,-15040,9.22133660331085,-73,-0.854961832061069,56,1.11450381679389,-33,0.50381679389313,43326,99.7242282238266,26996,26.5074016780421,50765,2305.18107888929,1493933688886,
8095885,30601.8676757813,2017,-3.89156626506024,2370,0.36144578313253,1305,8.93975903614458,5856,-3.5904353157572,256,0.156958920907419,-14992,9.19190680564071,-51,-1.09923664122137,72,0.778625954198473,-36,0.549618320610687,43325,99.7213412587403,26996,26.5074016780421,50765,2305.18107888929,1493933689094,
8102439,30801.8798828125,2015,-4,2379,0.385542168674699,1306,8.92771084337349,5872,-3.60024524831392,224,0.137339055793991,-15024,9.21152667075414,-104,-1.2824427480916,84,1.58778625954198,-66,1.00763358778626,43325,99.7264796405015,26999,26.5252146695895,50765,2305.18107888929,1493933689283,
8108993,31001.8920898438,2010,-3.8433734939759,2366,0.445783132530121,1304,8.95180722891566,5888,-3.61005518087063,272,0.166768853464132,-15024,9.21152667075414,-33,-0.82442748091603,54,0.50381679389313,-25,0.381679389312977,43325,99.7264796405015,26999,26.5252146695895,50765,2305.18107888929,1493933689494,
8115547,31201.904296875,2014,-3.8433734939759,2366,0.397590361445783,1302,8.97590361445783,5776,-3.54138565297364,304,0.18638871857756,-14960,9.17228694052728,24,-0.82442748091603,54,-0.366412213740458,-44,0.67175572519084,43323,99.7207054815874,26999,26.5252146695895,50765,2305.18107888929,1493933689685,
8122101,31401.9165039063,2016,-3.81927710843374,2364,0.373493975903614,1304,8.95180722891566,5776,-3.54138565297364,256,0.156958920907419,-15008,9.20171673819742,-48,-1.09923664122137,72,0.732824427480916,-48,0.732824427480916,43325,99.7264796405015,26999,26.5252146695895,50765,2305.18107888929,1493933689894,
8128655,31601.9287109375,2014,-3.79518072289157,2362,0.397590361445783,1300,9,5968,-3.6591048436542,192,0.117719190680564,-15056,9.23114653586757,-49,-0.610687022900763,40,0.748091603053435,-33,0.50381679389313,43327,99.7322538023528,26999,26.5252146695895,50765,2305.18107888929,1493933690091,
8135209,31801.9409179688,2015,-3.83132530120482,2365,0.385542168674699,1302,8.97590361445783,5840,-3.58062538320049,176,0.10790925812385,-14976,9.182096873084,-54,-1.22137404580153,80,0.82442748091603,-58,0.885496183206107,43327,99.7356792940309,27001,26.5370890504606,50765,2305.18107888929,1493933690306,
8141763,32001.953125,2016,-3.89156626506024,2370,0.373493975903614,1305,8.93975903614458,5808,-3.56100551808706,256,0.156958920907419,-14912,9.14285714285714,-91,-1.00763358778626,66,1.38931297709924,-60,0.916030534351145,43325,99.7299049782282,27001,26.5370890504606,50765,2305.18107888929,1493933690489,
8148317,32201.9653320313,2014,-3.87951807228916,2369,0.397590361445783,1304,8.95180722891566,5808,-3.56100551808706,272,0.166768853464132,-14912,9.14285714285714,1,-0.610687022900763,40,-0.0152671755725191,-29,0.442748091603053,43324,99.7270178214284,27001,26.5370890504606,50763,2310.03539436231,1493933690698,
8154871,32401.9775390625,2016,-3.85542168674699,2367,0.373493975903614,1303,8.96385542168675,5856,-3.5904353157572,224,0.137339055793991,-14976,9.182096873084,-62,-1.11450381679389,73,0.946564885496183,-32,0.488549618320611,43325,99.7299049782282,27001,26.5370890504606,50763,2310.03539436231,1493933690883,
8161425,32601.9897460938,2018,-3.89156626506024,2370,0.349397590361446,1303,8.96385542168675,5808,-3.56100551808706,288,0.176578786020846,-14992,9.19190680564071,-46,-1.05343511450382,69,0.702290076335878,-49,0.748091603053435,43325,99.7299049782282,27001,26.5370890504606,50762,2312.47022694583,1493933691091,
8167979,32802.001953125,2017,-3.86746987951807,2368,0.36144578313253,1305,8.93975903614458,5840,-3.58062538320049,272,0.166768853464132,-14912,9.14285714285714,-61,-1.06870229007634,70,0.931297709923664,-43,0.656488549618321,43325,99.7350426098631,27004,26.554899202412,50761,2314.9101976887,1493933691292,
8174533,33002.0141601563,2017,-3.86746987951807,2368,0.36144578313253,1306,8.92771084337349,5840,-3.58062538320049,288,0.176578786020846,-14960,9.17228694052728,-47,-1.06870229007634,70,0.717557251908397,-33,0.50381679389313,43325,99.7350426098631,27004,26.554899202412,50761,2314.9101976887,1493933691489,
8181087,33202.0263671875,2018,-3.87951807228916,2369,0.349397590361446,1303,8.96385542168675,5824,-3.57081545064378,192,0.117719190680564,-14992,9.19190680564071,-59,-0.885496183206107,58,0.900763358778626,-44,0.67175572519084,43323,99.7292680660888,27004,26.554899202412,50760,2317.35532287248,1493933691698,
8187641,33402.0385742188,2016,-3.85542168674699,2367,0.373493975903614,1304,8.95180722891566,5872,-3.60024524831392,256,0.156958920907419,-15008,9.20171673819742,-77,-1.22137404580153,80,1.17557251908397,-37,0.564885496183206,43322,99.7263807953034,27004,26.554899202412,50760,2317.35532287248,1493933691881,
8194195,33602.05078125,2016,-3.89156626506024,2370,0.373493975903614,1301,8.98795180722892,5824,-3.57081545064378,240,0.147148988350705,-14960,9.17228694052728,-78,-0.99236641221374,65,1.19083969465649,-35,0.534351145038168,43324,99.7321553376087,27004,26.554899202412,50759,2319.80561884759,1493933692091,
8200749,33802.0629882813,2021,-3.87951807228916,2369,0.313253012048193,1310,8.87951807228916,5840,-3.58062538320049,240,0.147148988350705,-14976,9.182096873084,-29,-1.23664122137405,81,0.442748091603053,-34,0.519083969465649,43324,99.7338677430596,27005,26.5608355414115,50752,2337.10386089558,1493933692306,
8207303,34002.0751953125,2019,-3.86746987951807,2368,0.337349397590361,1305,8.93975903614458,5872,-3.60024524831392,224,0.137339055793991,-14960,9.17228694052728,-11,-1.08396946564885,71,0.16793893129771,-61,0.931297709923664,43322,99.7280931237893,27005,26.5608355414115,50762,2312.47022694583,1493933692490,
8213857,34202.0874023438,2021,-3.91566265060241,2372,0.313253012048193,1305,8.93975903614458,5904,-3.61986511342735,256,0.156958920907419,-14912,9.14285714285714,201,-3.25190839694656,213,-3.06870229007634,-165,2.51908396946565,43323,99.7309804330572,27005,26.5608355414115,50759,2319.80561884759,1493933692706,
8220411,34402.099609375,2029,-4.25301204819277,2400,0.216867469879518,1303,8.96385542168675,6192,-3.79644389944819,64,0.0392397302268547,-14880,9.12323727774372,214,0.83969465648855,-55,-3.26717557251908,-316,4.82442748091603,43321,99.7252058152558,27005,26.5608355414115,50767,2300.34712238077,1493933692891,
8226965,34602.1118164063,2005,-2.68674698795181,2270,0.506024096385542,1266,9.40963855421687,5392,-3.30594727161251,208,0.127529123237278,-15040,9.22133660331085,1237,-9.74045801526717,638,-18.8854961832061,-1580,24.1221374045802,43323,99.7309804330572,27005,26.5608355414115,50764,2307.6056837251,1493933693106,
8233519,34802.1240234375,2025,-3.59036144578313,2345,0.265060240963855,1289,9.13253012048193,4624,-2.83507050889025,288,0.176578786020846,-15408,9.44696505211527,54,-1.77099236641221,116,-0.82442748091603,-204,3.11450381679389,43323,99.7361172342923,27008,26.578643424076,50766,2302.76156377774,1493933693291,
8240073,35002.1362304688,2016,-3.1566265060241,2309,0.373493975903614,1278,9.26506024096386,4592,-2.81545064377682,240,0.147148988350705,-15376,9.42734518700184,-52,-0.83969465648855,55,0.793893129770992,-35,0.534351145038168,43322,99.7332298095841,27008,26.578643424076,50769,2295.53339702673,1493933693505,
8246627,35202.1484375,2018,-3.24096385542169,2316,0.349397590361446,1283,9.20481927710843,4720,-2.89393010423053,160,0.0980993255671367,-15360,9.41753525444513,-113,-0.946564885496183,62,1.72519083969466,-19,0.290076335877863,43321,99.7303423856104,27008,26.578643424076,50772,2288.35046545048,1493933693689,
8253181,35402.1606445313,2015,-3.19277108433735,2312,0.385542168674699,1284,9.19277108433735,4720,-2.89393010423053,192,0.117719190680564,-15424,9.45677498467198,-6,-0.946564885496183,62,0.0916030534351145,-79,1.20610687022901,43322,99.7332298095841,27008,26.578643424076,50776,2278.84285828879,1493933693884,
8259735,35602.1728515625,2014,-3.20481927710843,2313,0.397590361445783,1283,9.20481927710843,4640,-2.84488044144697,192,0.117719190680564,-15440,9.46658491722869,-34,-1.02290076335878,67,0.519083969465649,-60,0.916030534351145,43318,99.7216801180963,27008,26.578643424076,50780,2269.41392839182,1493933694093,
8266289,35802.1850585938,2018,-3.16867469879518,2310,0.349397590361446,1282,9.21686746987952,4672,-2.86450030656039,224,0.137339055793991,-15408,9.44696505211527,-58,-1.02290076335878,67,0.885496183206107,-35,0.534351145038168,43318,99.7216801180963,27008,26.578643424076,50785,2257.73692578412,1493933694309,
8272843,36002.197265625,2017,-3.19277108433735,2312,0.36144578313253,1283,9.20481927710843,4640,-2.84488044144697,208,0.127529123237278,-15488,9.49601471489883,-77,-0.82442748091603,54,1.17557251908397,-42,0.641221374045801,43321,99.7303423856104,27008,26.578643424076,50789,2248.48148802706,1493933694493,
8279397,36202.2094726563,2017,-3.16867469879518,2310,0.36144578313253,1280,9.24096385542169,4672,-2.86450030656039,272,0.166768853464132,-15424,9.45677498467198,-55,-0.961832061068702,63,0.83969465648855,-32,0.488549618320611,43321,99.7303423856104,27008,26.578643424076,50794,2237.01835876227,1493933694701,
8285951,36402.2216796875,2013,-3.16867469879518,2310,0.409638554216868,1281,9.2289156626506,4640,-2.84488044144697,256,0.156958920907419,-15376,9.42734518700184,-81,-0.702290076335878,46,1.23664122137405,-47,0.717557251908397,43321,99.7303423856104,27008,26.578643424076,50799,2225.6715184822,1493933694885,
8292505,36602.2338867188,2017,-3.20481927710843,2313,0.36144578313253,1283,9.20481927710843,4656,-2.85469037400368,288,0.176578786020846,-15392,9.43715511955855,-68,-0.900763358778626,59,1.0381679389313,-30,0.458015267175573,43319,99.7245675398665,27008,26.578643424076,50806,2209.97796209976,1493933695093,
8299059,36802.24609375,2017,-3.20481927710843,2313,0.36144578313253,1281,9.2289156626506,4640,-2.84488044144697,192,0.117719190680564,-15376,9.42734518700184,-20,-0.83969465648855,55,0.305343511450382,-49,0.748091603053435,43319,99.7279915165889,27010,26.590514401016,50811,2198.90309917801,1493933695285,
8305613,37002.2583007813,2016,-3.16867469879518,2310,0.373493975903614,1281,9.2289156626506,4640,-2.84488044144697,176,0.10790925812385,-15408,9.44696505211527,-40,-0.854961832061069,56,0.610687022900763,-48,0.732824427480916,43318,99.7251040178646,27010,26.590514401016,50816,2187.93868170568,1493933695493,
8312167,37202.2705078125,2016,-3.16867469879518,2310,0.373493975903614,1283,9.20481927710843,4624,-2.83507050889025,224,0.137339055793991,-15408,9.44696505211527,-91,-0.977099236641221,64,1.38931297709924,-31,0.473282442748092,43319,99.7279915165889,27010,26.590514401016,50820,2179.24556262019,1493933695710,
8318721,37402.2827148438,2017,-3.19277108433735,2312,0.36144578313253,1284,9.19277108433735,4704,-2.88412017167382,272,0.166768853464132,-15456,9.47639484978541,-66,-0.977099236641221,64,1.00763358778626,-60,0.916030534351145,43319,99.7279915165889,27010,26.590514401016,50823,2172.77092171984,1493933695893,
8325275,37602.294921875,2013,-3.20481927710843,2313,0.409638554216868,1281,9.2289156626506,4688,-2.87431023911711,304,0.18638871857756,-15472,9.48620478234212,54,-0.82442748091603,54,-0.82442748091603,-38,0.580152671755725,43319,99.7279915165889,27010,26.590514401016,50826,2166.33463977754,1493933696110,
8331829,37802.3071289063,2016,-3.1566265060241,2309,0.373493975903614,1282,9.21686746987952,4672,-2.86450030656039,272,0.166768853464132,-15504,9.50582464745555,-37,-1.00763358778626,66,0.564885496183206,-40,0.610687022900763,43319,99.7348388713955,27014,26.6142540888785,50828,2162.0649276746,1493933696294,
8338383,38002.3193359375,2015,-3.16867469879518,2310,0.385542168674699,1282,9.21686746987952,4688,-2.87431023911711,256,0.156958920907419,-15408,9.44696505211527,-52,-0.946564885496183,62,0.793893129770992,-39,0.595419847328244,43318,99.731951218777,27014,26.6142540888785,50829,2159.93637691408,1493933696492,
8344937,38202.3315429688,2016,-3.18072289156627,2311,0.373493975903614,1282,9.21686746987952,4672,-2.86450030656039,272,0.166768853464132,-15344,9.40772532188841,-80,-1.19083969465649,78,1.22137404580153,-62,0.946564885496183,43319,99.7348388713955,27014,26.6142540888785,50829,2159.93637691408,1493933696707,
8351491,38402.34375,2015,-3.19277108433735,2312,0.385542168674699,1281,9.2289156626506,4672,-2.86450030656039,272,0.166768853464132,-15376,9.42734518700184,-35,-0.916030534351145,60,0.534351145038168,-63,0.961832061068702,43318,99.731951218777,27014,26.6142540888785,50830,2157.81201314366,1493933696898,
8358045,38602.3559570313,2019,-3.19277108433735,2312,0.337349397590361,1276,9.28915662650602,4704,-2.88412017167382,144,0.088289393010423,-15424,9.45677498467198,-7,-0.931297709923664,61,0.106870229007634,-63,0.961832061068702,43317,99.7290635668931,27014,26.6142540888785,50830,2157.81201314366,1493933697082,
8364599,38802.3681640625,2019,-3.1566265060241,2309,0.337349397590361,1284,9.19277108433735,4720,-2.89393010423053,256,0.156958920907419,-15392,9.43715511955855,-146,-1.08396946564885,71,2.22900763358779,-35,0.534351145038168,43317,99.7273518799379,27013,26.6083194500547,50831,2155.69182402139,1493933697291,
8371153,39002.3803710938,2015,-3.21686746987952,2314,0.385542168674699,1284,9.19277108433735,4704,-2.88412017167382,256,0.156958920907419,-15408,9.44696505211527,-119,-1.11450381679389,73,1.81679389312977,-48,0.732824427480916,43318,99.7302394933501,27013,26.6083194500547,50832,2153.57579725376,1493933697507,
8377707,39202.392578125,2014,-3.20481927710843,2313,0.397590361445783,1284,9.19277108433735,4752,-2.91354996934396,224,0.137339055793991,-15328,9.3979153893317,-9,-0.793893129770992,52,0.137404580152672,-38,0.580152671755725,43315,99.7215766553175,27013,26.6083194500547,50831,2155.69182402139,1493933697695,
8384261,39402.4047851563,2017,-3.18072289156627,2311,0.36144578313253,1281,9.2289156626506,4720,-2.89393010423053,240,0.147148988350705,-15408,9.44696505211527,-67,-1.02290076335878,67,1.02290076335878,-45,0.687022900763359,43316,99.7244642672604,27013,26.6083194500547,50831,2155.69182402139,1493933697893,
8390815,39602.4169921875,2015,-3.18072289156627,2311,0.385542168674699,1282,9.21686746987952,4640,-2.84488044144697,240,0.147148988350705,-15408,9.44696505211527,-77,-1.05343511450382,69,1.17557251908397,-49,0.748091603053435,43314,99.7186890441092,27013,26.6083194500547,50830,2157.81201314366,1493933698110,
8397369,39802.4291992188,2016,-3.16867469879518,2310,0.373493975903614,1285,9.18072289156627,4704,-2.88412017167382,224,0.137339055793991,-15328,9.3979153893317,-66,-0.900763358778626,59,1.00763358778626,-33,0.50381679389313,43314,99.7255350312433,27017,26.6320568733997,50830,2157.81201314366,1493933698294,
8403923,40002.44140625,2013,-3.19277108433735,2312,0.409638554216868,1284,9.19277108433735,4704,-2.88412017167382,304,0.18638871857756,-15360,9.41753525444513,-46,-0.946564885496183,62,0.702290076335878,-32,0.488549618320611,43318,99.7370860960036,27017,26.6320568733997,50830,2157.81201314366,1493933698510,
8410477,40202.4536132813,2017,-3.19277108433735,2312,0.36144578313253,1281,9.2289156626506,4784,-2.93316983445739,304,0.18638871857756,-15392,9.43715511955855,-59,-1.09923664122137,72,0.900763358778626,-35,0.534351145038168,43316,99.7313105621541,27017,26.6320568733997,50829,2159.93637691408,1493933698693,
8417031,40402.4658203125,2014,-3.20481927710843,2313,0.397590361445783,1282,9.21686746987952,4784,-2.93316983445739,272,0.166768853464132,-15344,9.40772532188841,-47,-0.977099236641221,64,0.717557251908397,-39,0.595419847328244,43315,99.7284227963314,27017,26.6320568733997,50829,2159.93637691408,1493933698911,
8423585,40602.4780273438,2017,-3.21686746987952,2314,0.36144578313253,1284,9.19277108433735,4688,-2.87431023911711,192,0.117719190680564,-15344,9.40772532188841,-50,-0.854961832061069,56,0.763358778625954,-33,0.50381679389313,43313,99.7226472668899,27017,26.6320568733997,50828,2162.0649276746,1493933699100,
8430139,40802.490234375,2018,-3.18072289156627,2311,0.349397590361446,1283,9.20481927710843,4704,-2.88412017167382,240,0.147148988350705,-15424,9.45677498467198,-71,-1.05343511450382,69,1.08396946564885,-36,0.549618320610687,43313,99.7209358833203,27016,26.6261228005069,50828,2162.0649276746,1493933699285,
8436693,41002.5024414063,2017,-3.20481927710843,2313,0.36144578313253,1283,9.20481927710843,4784,-2.93316983445739,176,0.10790925812385,-15376,9.42734518700184,-45,-0.900763358778626,59,0.687022900763359,-51,0.778625954198473,43315,99.7267113358254,27016,26.6261228005069,50827,2164.19767781589,1493933699493,
8443247,41202.5146484375,2018,-3.19277108433735,2312,0.349397590361446,1282,9.21686746987952,4720,-2.89393010423053,224,0.137339055793991,-15424,9.45677498467198,-67,-1.06870229007634,70,1.02290076335878,-44,0.67175572519084,43316,99.72959906318,27016,26.6261228005069,50828,2162.0649276746,1493933699687,
8449801,41402.5268554688,2015,-3.20481927710843,2313,0.385542168674699,1282,9.21686746987952,4672,-2.86450030656039,272,0.166768853464132,-15248,9.34886572654813,-45,-0.99236641221374,65,0.687022900763359,-52,0.793893129770992,43317,99.7324867912692,27016,26.6261228005069,50828,2162.0649276746,1493933699895,
8456355,41602.5390625,2015,-3.18072289156627,2311,0.385542168674699,1281,9.2289156626506,4640,-2.84488044144697,240,0.147148988350705,-15376,9.42734518700184,-59,-0.916030534351145,60,0.900763358778626,-56,0.854961832061069,43313,99.7209358833203,27016,26.6261228005069,50827,2164.19767781589,1493933700083,
8462909,41802.5512695313,2016,-3.19277108433735,2312,0.373493975903614,1282,9.21686746987952,4752,-2.91354996934396,208,0.127529123237278,-15392,9.43715511955855,-73,-0.931297709923664,61,1.11450381679389,-51,0.778625954198473,43313,99.7277811187728,27020,26.6498579609213,50828,2162.0649276746,1493933700312,
8469463,42002.5634765625,2017,-3.2289156626506,2315,0.36144578313253,1283,9.20481927710843,4672,-2.86450030656039,304,0.18638871857756,-15344,9.40772532188841,-74,-0.977099236641221,64,1.12977099236641,-48,0.732824427480916,43314,99.7306689985236,27020,26.6498579609213,50829,2159.93637691408,1493933700495,
8476017,42202.5756835938,2017,-3.16867469879518,2310,0.36144578313253,1281,9.2289156626506,4784,-2.93316983445739,256,0.156958920907419,-15424,9.45677498467198,-53,-0.946564885496183,62,0.809160305343511,-40,0.610687022900763,43313,99.7277811187728,27020,26.6498579609213,50829,2159.93637691408,1493933700710,
8482571,42402.587890625,2016,-3.18072289156627,2311,0.373493975903614,1281,9.2289156626506,4704,-2.88412017167382,240,0.147148988350705,-15424,9.45677498467198,-61,-0.900763358778626,59,0.931297709923664,-42,0.641221374045801,43313,99.7277811187728,27020,26.6498579609213,50829,2159.93637691408,1493933700894,
8489125,42602.6000976563,2016,-3.20481927710843,2313,0.373493975903614,1282,9.21686746987952,4608,-2.82526057633354,224,0.137339055793991,-15392,9.43715511955855,-48,-0.763358778625954,50,0.732824427480916,-30,0.458015267175573,43313,99.7277811187728,27020,26.6498579609213,50829,2159.93637691408,1493933701108,
8495679,42802.6123046875,2015,-3.1566265060241,2309,0.385542168674699,1282,9.21686746987952,4688,-2.87431023911711,288,0.176578786020846,-15392,9.43715511955855,-58,-0.931297709923664,61,0.885496183206107,-43,0.656488549618321,43313,99.7329145226416,27023,26.667657352632,50830,2157.81201314366,1493933701293,
8502233,43002.6245117188,2017,-3.2289156626506,2315,0.36144578313253,1284,9.19277108433735,4704,-2.88412017167382,288,0.176578786020846,-15408,9.44696505211527,-61,-0.916030534351145,60,0.931297709923664,-39,0.595419847328244,43313,99.7329145226416,27023,26.667657352632,50831,2155.69182402139,1493933701507,
8508787,43202.63671875,2015,-3.21686746987952,2314,0.385542168674699,1282,9.21686746987952,4672,-2.86450030656039,208,0.127529123237278,-15360,9.41753525444513,-42,-0.82442748091603,54,0.641221374045801,-32,0.488549618320611,43313,99.7329145226416,27023,26.667657352632,50831,2155.69182402139,1493933701699,
8515341,43402.6489257813,2017,-3.21686746987952,2314,0.36144578313253,1282,9.21686746987952,4688,-2.87431023911711,240,0.147148988350705,-15424,9.45677498467198,-50,-0.99236641221374,65,0.763358778625954,-57,0.870229007633588,43313,99.7329145226416,27023,26.667657352632,50831,2155.69182402139,1493933701882,
8521895,43602.6611328125,2016,-3.2289156626506,2315,0.373493975903614,1283,9.20481927710843,4768,-2.92335990190067,288,0.176578786020846,-15504,9.50582464745555,-62,-0.870229007633588,57,0.946564885496183,-27,0.412213740458015,43310,99.7242505416375,27023,26.667657352632,50831,2155.69182402139,1493933702091,
8528449,43802.6733398438,2018,-3.18072289156627,2311,0.349397590361446,1283,9.20481927710843,4736,-2.90374003678725,288,0.176578786020846,-15360,9.41753525444513,-37,-1.17557251908397,77,0.564885496183206,-56,0.854961832061069,43310,99.7259614613721,27024,26.6735901065606,50831,2155.69182402139,1493933702307,
8535003,44002.685546875,2017,-3.2289156626506,2315,0.36144578313253,1283,9.20481927710843,4736,-2.90374003678725,224,0.137339055793991,-15312,9.38810545677498,-59,-1.12977099236641,74,0.900763358778626,-45,0.687022900763359,43310,99.7259614613721,27024,26.6735901065606,50830,2157.81201314366,1493933702490,
8541557,44202.6977539063,2015,-3.19277108433735,2312,0.385542168674699,1283,9.20481927710843,4720,-2.89393010423053,240,0.147148988350705,-15136,9.28019619865113,-55,-1.12977099236641,74,0.83969465648855,-45,0.687022900763359,43313,99.7346255577559,27024,26.6735901065606,50830,2157.81201314366,1493933702704,
8548111,44402.7099609375,2016,-3.19277108433735,2312,0.373493975903614,1285,9.18072289156627,4704,-2.88412017167382,224,0.137339055793991,-15328,9.3979153893317,-65,-0.99236641221374,65,0.99236641221374,-47,0.717557251908397,43313,99.7346255577559,27024,26.6735901065606,50830,2157.81201314366,1493933702885,
8554665,44602.7221679688,2014,-3.16867469879518,2310,0.397590361445783,1279,9.25301204819277,4656,-2.85469037400368,272,0.166768853464132,-15392,9.43715511955855,-50,-1.12977099236641,74,0.763358778625954,-45,0.687022900763359,43313,99.7346255577559,27024,26.6735901065606,50830,2157.81201314366,1493933703095,
8561219,44802.734375,2018,-3.20481927710843,2313,0.349397590361446,1286,9.16867469879518,4656,-2.85469037400368,176,0.10790925812385,-15296,9.37829552421827,-47,-0.793893129770992,52,0.717557251908397,-40,0.610687022900763,43313,99.7397583647224,27027,26.6913872390375,50829,2159.93637691408,1493933703311,
8567773,45002.7465820313,2016,-3.19277108433735,2312,0.373493975903614,1282,9.21686746987952,4688,-2.87431023911711,256,0.156958920907419,-15424,9.45677498467198,-43,-1.11450381679389,73,0.656488549618321,-54,0.82442748091603,43313,99.7397583647224,27027,26.6913872390375,50830,2157.81201314366,1493933703494,
8574327,45202.7587890625,2016,-3.21686746987952,2314,0.373493975903614,1283,9.20481927710843,4736,-2.90374003678725,176,0.10790925812385,-15360,9.41753525444513,-46,-0.931297709923664,61,0.702290076335878,-51,0.778625954198473,43310,99.7310939222207,27027,26.6913872390375,50830,2157.81201314366,1493933703712,
8580881,45402.7709960938,2017,-3.19277108433735,2312,0.36144578313253,1283,9.20481927710843,4736,-2.90374003678725,192,0.117719190680564,-15392,9.43715511955855,-39,-0.900763358778626,59,0.595419847328244,-52,0.793893129770992,43313,99.7397583647224,27027,26.6913872390375,50830,2157.81201314366,1493933703896,
8587435,45602.783203125,2016,-3.18072289156627,2311,0.373493975903614,1282,9.21686746987952,4656,-2.85469037400368,176,0.10790925812385,-15456,9.47639484978541,-52,-1.05343511450382,69,0.793893129770992,-53,0.809160305343511,43308,99.7253176308939,27027,26.6913872390375,50830,2157.81201314366,1493933704096,
8593989,45802.7954101563,2016,-3.21686746987952,2314,0.373493975903614,1283,9.20481927710843,4640,-2.84488044144697,208,0.127529123237278,-15408,9.44696505211527,-61,-0.854961832061069,56,0.931297709923664,-33,0.50381679389313,43308,99.7270282748503,27028,26.6973192402399,50830,2157.81201314366,1493933704294,
8600543,46002.8076171875,2018,-3.19277108433735,2312,0.349397590361446,1282,9.21686746987952,4640,-2.84488044144697,256,0.156958920907419,-15440,9.46658491722869,-67,-0.916030534351145,60,1.02290076335878,-35,0.534351145038168,43309,99.7299164586014,27028,26.6973192402399,50830,2157.81201314366,1493933704508,
8607097,46202.8198242188,2016,-3.18072289156627,2311,0.373493975903614,1281,9.2289156626506,4672,-2.86450030656039,224,0.137339055793991,-15392,9.43715511955855,-58,-0.99236641221374,65,0.885496183206107,-48,0.732824427480916,43308,99.7270282748503,27028,26.6973192402399,50830,2157.81201314366,1493933704694,
8613651,46402.83203125,2018,-3.21686746987952,2314,0.349397590361446,1282,9.21686746987952,4656,-2.85469037400368,224,0.137339055793991,-15408,9.44696505211527,-63,-0.870229007633588,57,0.961832061068702,-46,0.702290076335878,43309,99.7299164586014,27028,26.6973192402399,50831,2155.69182402139,1493933704886,
8620205,46602.8442382813,2017,-3.16867469879518,2310,0.36144578313253,1282,9.21686746987952,4656,-2.85469037400368,224,0.137339055793991,-15328,9.3979153893317,-24,-1.08396946564885,71,0.366412213740458,-56,0.854961832061069,43309,99.7299164586014,27028,26.6973192402399,50831,2155.69182402139,1493933705096,
8626759,46802.8564453125,2016,-3.19277108433735,2312,0.373493975903614,1282,9.21686746987952,4704,-2.88412017167382,240,0.147148988350705,-15312,9.38810545677498,-52,-0.900763358778626,59,0.793893129770992,-36,0.549618320610687,43309,99.7350482077446,27031,26.7151141155919,50831,2155.69182402139,1493933705283,
8633313,47002.8686523438,2015,-3.18072289156627,2311,0.385542168674699,1283,9.20481927710843,4752,-2.91354996934396,288,0.176578786020846,-15408,9.44696505211527,-48,-0.809160305343511,53,0.732824427480916,-43,0.656488549618321,43308,99.7321599086351,27031,26.7151141155919,50831,2155.69182402139,1493933705507,
8639867,47202.880859375,2017,-3.16867469879518,2310,0.36144578313253,1282,9.21686746987952,4704,-2.88412017167382,240,0.147148988350705,-15360,9.41753525444513,-30,-0.900763358778626,59,0.458015267175573,-53,0.809160305343511,43308,99.7321599086351,27031,26.7151141155919,50832,2153.57579725376,1493933705691,
8646421,47402.8930664063,2014,-3.18072289156627,2311,0.397590361445783,1281,9.2289156626506,4704,-2.88412017167382,272,0.166768853464132,-15392,9.43715511955855,-70,-0.916030534351145,60,1.06870229007634,-42,0.641221374045801,43307,99.7292716102606,27031,26.7151141155919,50831,2155.69182402139,1493933705897,
8652975,47602.9052734375,2017,-3.18072289156627,2311,0.36144578313253,1282,9.21686746987952,4704,-2.88412017167382,288,0.176578786020846,-15392,9.43715511955855,-37,-0.870229007633588,57,0.564885496183206,-48,0.732824427480916,43305,99.7234950157163,27031,26.7151141155919,50831,2155.69182402139,1493933706082,
8659529,47802.9174804688,2016,-3.20481927710843,2313,0.373493975903614,1283,9.20481927710843,4656,-2.85469037400368,240,0.147148988350705,-15440,9.46658491722869,-66,-0.961832061068702,63,1.00763358778626,-40,0.610687022900763,43305,99.7269156259101,27033,26.7269764260528,50831,2155.69182402139,1493933706291,
8666083,48002.9296875,2015,-3.16867469879518,2310,0.385542168674699,1283,9.20481927710843,4768,-2.92335990190067,240,0.147148988350705,-15472,9.48620478234212,-72,-1.00763358778626,66,1.09923664122137,-36,0.549618320610687,43309,99.7384691255371,27033,26.7269764260528,50831,2155.69182402139,1493933706508,
8672637,48202.9418945313,2017,-3.21686746987952,2314,0.36144578313253,1284,9.19277108433735,4704,-2.88412017167382,304,0.18638871857756,-15456,9.47639484978541,-84,-0.977099236641221,64,1.2824427480916,-53,0.809160305343511,43307,99.7326923742536,27033,26.7269764260528,50830,2157.81201314366,1493933706684,
8679191,48402.9541015625,2017,-3.16867469879518,2310,0.36144578313253,1281,9.2289156626506,4768,-2.92335990190067,224,0.137339055793991,-15392,9.43715511955855,-39,-1.23664122137405,81,0.595419847328244,-43,0.656488549618321,43306,99.7298039997144,27033,26.7269764260528,50830,2157.81201314366,1493933706894,
8685745,48602.9663085938,2015,-3.16867469879518,2310,0.385542168674699,1282,9.21686746987952,4704,-2.88412017167382,240,0.147148988350705,-15424,9.45677498467198,-53,-1.12977099236641,74,0.809160305343511,-45,0.687022900763359,43305,99.7269156259101,27033,26.7269764260528,50830,2157.81201314366,1493933707108,
8692299,48802.978515625,2016,-3.20481927710843,2313,0.373493975903614,1283,9.20481927710843,4672,-2.86450030656039,208,0.127529123237278,-15376,9.42734518700184,-59,-0.931297709923664,61,0.900763358778626,-46,0.702290076335878,43305,99.7286258565551,27034,26.7329072994827,50829,2159.93637691408,1493933707292,
8698853,49002.9907226563,2016,-3.19277108433735,2312,0.373493975903614,1283,9.20481927710843,4672,-2.86450030656039,176,0.10790925812385,-15344,9.40772532188841,-58,-0.900763358778626,59,0.885496183206107,-48,0.732824427480916,43306,99.7315142688075,27034,26.7329072994827,50830,2157.81201314366,1493933707507,
8705407,49203.0029296875,2016,-3.16867469879518,2310,0.373493975903614,1282,9.21686746987952,4656,-2.85469037400368,192,0.117719190680564,-15360,9.41753525444513,-51,-1.08396946564885,71,0.778625954198473,-43,0.656488549618321,43306,99.7315142688075,27034,26.7329072994827,50829,2159.93637691408,1493933707691,
8711961,49403.0151367188,2016,-3.21686746987952,2314,0.373493975903614,1283,9.20481927710843,4640,-2.84488044144697,240,0.147148988350705,-15360,9.41753525444513,-20,-0.854961832061069,56,0.305343511450382,-39,0.595419847328244,43305,99.7286258565551,27034,26.7329072994827,50828,2162.0649276746,1493933707906,
8718515,49603.02734375,2016,-3.18072289156627,2311,0.373493975903614,1280,9.24096385542169,4656,-2.85469037400368,256,0.156958920907419,-15392,9.43715511955855,-29,-1.12977099236641,74,0.442748091603053,-67,1.02290076335878,43305,99.7286258565551,27034,26.7329072994827,50828,2162.0649276746,1493933708107,
8725069,49803.0395507813,2019,-3.19277108433735,2312,0.337349397590361,1282,9.21686746987952,4704,-2.88412017167382,144,0.088289393010423,-15376,9.42734518700184,-82,-0.870229007633588,57,1.25190839694656,-31,0.473282442748092,43305,99.7320461689948,27036,26.7447684829604,50828,2162.0649276746,1493933708291,
8731623,50003.0517578125,2042,-3.26506024096386,2318,0.0602409638554217,1277,9.27710843373494,4752,-2.91354996934396,-16,-0.00980993255671367,-15568,9.5450643776824,-872,0.274809160305344,-18,13.3129770992366,538,-8.21374045801527,43305,99.7320461689948,27036,26.7447684829604,50828,2162.0649276746,1493933708500,
8738177,50203.0639648438,1989,-3.74698795180723,2358,0.698795180722892,1309,8.89156626506024,5392,-3.30594727161251,496,0.304107909258124,-15056,9.23114653586757,-575,1.87786259541985,-123,8.77862595419847,448,-6.83969465648855,43305,99.7320461689948,27036,26.7447684829604,50827,2164.19767781589,1493933708683,
8744731,50403.076171875,2047,-3.83132530120482,2365,0,1306,8.92771084337349,5696,-3.49233599019007,64,0.0392397302268547,-15024,9.21152667075414,-309,-0.977099236641221,64,4.7175572519084,67,-1.02290076335878,43306,99.7349346581397,27036,26.7447684829604,50827,2164.19767781589,1493933708898,
8751285,50603.0883789063,1955,-3.48192771084337,2336,1.10843373493976,1272,9.33734939759036,5456,-3.34518700183936,928,0.568976088289393,-15264,9.35867565910484,622,-8.58015267175572,562,-9.49618320610687,-753,11.4961832061069,43305,99.7320461689948,27036,26.7447684829604,50827,2164.19767781589,1493933709084,
8757839,50803.1005859375,2071,-4.25301204819277,2400,-0.289156626506024,1317,8.79518072289157,6416,-3.93378295524218,-208,-0.127529123237278,-14832,9.09380748007357,-716,-5.40458015267176,354,10.9312977099237,705,-10.763358778626,43305,99.7405960822967,27041,26.774418157303,50822,2174.92485634621,1493933709305,
8764393,51003.1127929688,2052,-4.24096385542169,2399,-0.0602409638554217,1322,8.73493975903614,6240,-3.82587369711833,-240,-0.147148988350705,-14736,9.03494788473329,-155,3.61832061068702,-237,2.36641221374046,184,-2.80916030534351,43301,99.7290413642246,27041,26.774418157303,50822,2174.92485634621,1493933709488,
8770947,51203.125,2033,-4.34939759036145,2408,0.168674698795181,1321,8.74698795180723,6592,-4.04169221336603,-160,-0.0980993255671367,-14576,8.93684855916615,-15,2.06106870229008,-135,0.229007633587786,97,-1.48091603053435,43305,99.7405960822967,27041,26.774418157303,50822,2174.92485634621,1493933709697,
8777501,51403.1372070313,2054,-4.60240963855422,2429,-0.0843373493975904,1329,8.65060240963856,6784,-4.1594114040466,-368,-0.225628448804414,-14464,8.86817903126916,-16,0.0610687022900763,-4,0.244274809160305,-32,0.488549618320611,43302,99.7319300426399,27041,26.774418157303,50823,2172.77092171984,1493933709884,
8784055,51603.1494140625,2005,-4.26506024096386,2401,0.506024096385542,1311,8.86746987951807,6640,-4.07112201103617,-80,-0.0490496627835684,-14624,8.9662783568363,-19,0.16793893129771,-11,0.290076335877863,102,-1.55725190839695,43305,99.7405960822967,27041,26.774418157303,50824,2170.62124916648,1493933710095,
8790609,51803.1616210938,2042,-4.46987951807229,2418,0.0602409638554217,1323,8.72289156626506,6688,-4.10055180870631,-112,-0.0686695278969957,-14608,8.95646842427958,-108,0,0,1.64885496183206,22,-0.33587786259542,43305,99.7405960822967,27041,26.774418157303,50824,2170.62124916648,1493933710311,
8797163,52003.173828125,2033,-4.43373493975904,2415,0.168674698795181,1329,8.65060240963856,6720,-4.12017167381974,96,0.058859595340282,-14672,8.99570815450644,-277,-1.66412213740458,109,4.22900763358779,-54,0.82442748091603,43305,99.7405960822967,27041,26.774418157303,50824,2170.62124916648,1493933710509,
8803717,52203.1860351563,2023,-4.53012048192771,2423,0.289156626506024,1326,8.68674698795181,6768,-4.14960147148988,-112,-0.0686695278969957,-14672,8.99570815450644,-211,-0.885496183206107,58,3.22137404580153,33,-0.50381679389313,43302,99.7319300426399,27041,26.774418157303,50825,2168.47582604834,1493933710693,
8810271,52403.1982421875,2050,-4.51807228915663,2422,-0.036144578313253,1328,8.66265060240964,6944,-4.25751072961373,-176,-0.10790925812385,-14576,8.93684855916615,-57,-0.381679389312977,25,0.870229007633588,2,-0.0305343511450382,43302,99.7319300426399,27041,26.774418157303,50825,2168.47582604834,1493933710909,
8816825,52603.2104492188,2064,-4.39759036144578,2412,-0.204819277108434,1330,8.63855421686747,6720,-4.12017167381974,-256,-0.156958920907419,-14656,8.98589822194972,-14,-1.80152671755725,118,0.213740458015267,-61,0.931297709923664,43305,99.7405960822967,27041,26.774418157303,50828,2162.0649276746,1493933711093,
8823379,52803.22265625,2057,-4.46987951807229,2418,-0.120481927710843,1327,8.67469879518072,6928,-4.24770079705702,-128,-0.0784794604537094,-14592,8.94665849172287,243,-2.93129770992366,192,-3.70992366412214,-177,2.70229007633588,43305,99.7405960822967,27041,26.774418157303,50829,2159.93637691408,1493933711309,
8829933,53003.2348632813,2029,-4.02409638554217,2381,0.216867469879518,1308,8.90361445783133,6832,-4.18884120171674,-144,-0.088289393010423,-14608,8.95646842427958,544,1.90839694656489,-125,-8.30534351145038,11,-0.16793893129771,43301,99.7290413642246,27041,26.774418157303,50832,2153.57579725376,1493933711500,
8836487,53203.2470703125,2013,-4.08433734939759,2386,0.409638554216868,1310,8.87951807228916,6432,-3.9435928877989,-112,-0.0686695278969957,-14736,9.03494788473329,-90,0.351145038167939,-23,1.37404580152672,105,-1.6030534351145,43301,99.7290413642246,27041,26.774418157303,50834,2149.35618184929,1493933711685,
8843041,53403.2592773438,2052,-4.40963855421687,2413,-0.0602409638554217,1319,8.7710843373494,6272,-3.84549356223176,32,0.0196198651134273,-14832,9.09380748007357,-545,-3.29770992366412,216,8.3206106870229,13,-0.198473282442748,43301,99.7290413642246,27041,26.774418157303,50835,2147.25256886561,1493933711897,
8849595,53603.271484375,2034,-4.66265060240964,2434,0.156626506024096,1333,8.60240963855422,6720,-4.12017167381974,-224,-0.137339055793991,-14480,8.87798896382587,193,0.0152671755725191,-1,-2.94656488549618,-121,1.84732824427481,43301,99.7290413642246,27041,26.774418157303,50838,2140.96636370565,1493933712082,
8856149,53803.2836914063,2026,-4.10843373493976,2388,0.253012048192771,1309,8.89156626506024,6592,-4.04169221336603,-272,-0.166768853464132,-14672,8.99570815450644,174,2.80916030534351,-184,-2.65648854961832,211,-3.22137404580153,43301,99.7324606751456,27043,26.7862767142184,50839,2138.87913322351,1493933712293,
8862703,54003.2958984375,2031,-4.32530120481928,2406,0.192771084337349,1321,8.74698795180723,6416,-3.93378295524218,-128,-0.0784794604537094,-14768,9.05456774984672,-255,-2.06106870229008,135,3.89312977099237,-16,0.244274809160305,43299,99.7266831667684,27043,26.7862767142184,50841,2134.71685756016,1493933712510,
8869257,54203.3081054688,2045,-4.50602409638554,2421,0.0240963855421687,1331,8.62650602409639,6512,-3.99264255058246,-96,-0.058859595340282,-14736,9.03494788473329,-385,-2.09160305343511,137,5.87786259541985,-67,1.02290076335878,43299,99.7266831667684,27043,26.7862767142184,50842,2132.64178868932,1493933712695,
8875811,54403.3203125,2029,-4.56626506024096,2426,0.216867469879518,1334,8.59036144578313,6848,-4.19865113427345,-176,-0.10790925812385,-14528,8.90741876149601,-117,-1.00763358778626,66,1.78625954198473,-49,0.748091603053435,43299,99.7266831667684,27043,26.7862767142184,50844,2128.50372998994,1493933712886,
8882365,54603.3325195313,2040,-4.57831325301205,2427,0.0843373493975904,1325,8.69879518072289,6960,-4.26732066217045,-48,-0.029429797670141,-14416,8.83874923359902,70,0.213740458015267,-14,-1.06870229007634,-24,0.366412213740458,43299,99.7266831667684,27043,26.7862767142184,50846,2124.38169870659,1493933713084,
8888919,54803.3447265625,2037,-4.45783132530121,2417,0.120481927710843,1325,8.69879518072289,6848,-4.19865113427345,-128,-0.0784794604537094,-14496,8.88779889638259,-46,-0.793893129770992,52,0.702290076335878,-62,0.946564885496183,43299,99.7301021258672,27045,26.7981345214745,50847,2122.32666427551,1493933713293,
8895473,55003.3569335938,2028,-4.49397590361446,2420,0.228915662650602,1326,8.68674698795181,6880,-4.21827099938688,-160,-0.0980993255671367,-14576,8.93684855916615,-77,-1.02290076335878,67,1.17557251908397,-53,0.809160305343511,43297,99.7243244666883,27045,26.7981345214745,50848,2120.27560190384,1493933713508,
8902027,55203.369140625,2043,-4.42168674698795,2414,0.0481927710843374,1327,8.67469879518072,6688,-4.10055180870631,-80,-0.0490496627835684,-14576,8.93684855916615,-10,-0.870229007633588,57,0.152671755725191,-39,0.595419847328244,43302,99.7387686201497,27045,26.7981345214745,50850,2116.18534736336,1493933713693,
8908581,55403.3813476563,2034,-4.51807228915663,2422,0.156626506024096,1326,8.68674698795181,6816,-4.17903126916002,-128,-0.0784794604537094,-14544,8.91722869405273,-115,-1.16030534351145,76,1.75572519083969,-19,0.290076335877863,43301,99.735879787987,27045,26.7981345214745,50852,2112.11084357707,1493933713908,
8915135,55603.3935546875,2036,-4.46987951807229,2418,0.132530120481928,1326,8.68674698795181,6784,-4.1594114040466,-16,-0.00980993255671367,-14544,8.91722869405273,-17,-1.11450381679389,73,0.259541984732824,-77,1.17557251908397,43298,99.7272132959101,27045,26.7981345214745,50854,2108.05199974029,1493933714094,
8921689,55803.4057617188,2037,-4.50602409638554,2421,0.120481927710843,1325,8.69879518072289,6896,-4.22808093194359,-80,-0.0490496627835684,-14624,8.9662783568363,-61,-0.732824427480916,48,0.931297709923664,-38,0.580152671755725,43298,99.7289226627759,27046,26.8040631440897,50855,2106.02842211717,1493933714308,
8928243,56003.41796875,2035,-4.45783132530121,2417,0.144578313253012,1324,8.71084337349398,6832,-4.18884120171674,-112,-0.0686695278969957,-14528,8.90741876149601,-26,-0.83969465648855,55,0.396946564885496,-50,0.763358778625954,43299,99.7318115311668,27046,26.8040631440897,50857,2101.99289946799,1493933714484,
8934797,56203.4301757813,2036,-4.45783132530121,2417,0.132530120481928,1325,8.69879518072289,6800,-4.16922133660331,-48,-0.029429797670141,-14448,8.85836909871245,-55,-0.885496183206107,58,0.83969465648855,-40,0.610687022900763,43299,99.7318115311668,27046,26.8040631440897,50859,2097.97281278991,1493933714692,
8941351,56403.4423828125,2036,-4.45783132530121,2417,0.132530120481928,1326,8.68674698795181,6832,-4.18884120171674,-96,-0.058859595340282,-14528,8.90741876149601,-32,-1.06870229007634,70,0.488549618320611,-48,0.732824427480916,43297,99.7260337951201,27046,26.8040631440897,50861,2093.96807368757,1493933714909,
8947905,56603.4545898438,2035,-4.49397590361446,2420,0.144578313253012,1324,8.71084337349398,6896,-4.22808093194359,-32,-0.0196198651134273,-14560,8.92703862660944,-46,-1.23664122137405,81,0.702290076335878,-34,0.519083969465649,43298,99.7289226627759,27046,26.8040631440897,50863,2089.97859443924,1493933715092,
8954459,56803.466796875,2044,-4.53012048192771,2423,0.036144578313253,1330,8.63855421686747,6816,-4.17903126916002,-176,-0.10790925812385,-14544,8.91722869405273,-186,-0.900763358778626,59,2.83969465648855,-59,0.900763358778626,43298,99.7340504665082,27049,26.8218478884069,50865,2086.00428799041,1493933715309,
8961013,57003.4790039063,2035,-4.56626506024096,2426,0.144578313253012,1329,8.65060240963856,6928,-4.24770079705702,-144,-0.088289393010423,-14464,8.86817903126916,33,0.427480916030534,-28,-0.50381679389313,-52,0.793893129770992,43298,99.7340504665082,27049,26.8218478884069,50867,2082.04506794754,1493933715494,
8967567,57203.4912109375,2040,-4.45783132530121,2417,0.0843373493975904,1324,8.71084337349398,6784,-4.1594114040466,-128,-0.0784794604537094,-14592,8.94665849172287,2,-0.564885496183206,37,-0.0305343511450382,-64,0.977099236641221,43297,99.7311614835579,27049,26.8218478884069,50868,2080.07108850952,1493933715690,
8974121,57403.5034179688,2037,-4.50602409638554,2421,0.120481927710843,1329,8.65060240963856,6752,-4.13979153893317,-144,-0.088289393010423,-14656,8.98589822194972,-132,-1.25190839694656,82,2.01526717557252,-58,0.885496183206107,43298,99.7340504665082,27049,26.8218478884069,50869,2078.1008485717,1493933715907,
8980675,57603.515625,2033,-4.45783132530121,2417,0.168674698795181,1327,8.67469879518072,6816,-4.17903126916002,-80,-0.0490496627835684,-14592,8.94665849172287,-47,-1.14503816793893,75,0.717557251908397,-48,0.732824427480916,43297,99.7311614835579,27049,26.8218478884069,50870,2076.13433751799,1493933716092,
8987229,57803.5278320313,2037,-4.46987951807229,2418,0.120481927710843,1324,8.71084337349398,6784,-4.1594114040466,-96,-0.058859595340282,-14512,8.8976088289393,-66,-1.23664122137405,81,1.00763358778626,-59,0.900763358778626,43297,99.7328706141199,27050,26.8277757621488,50872,2072.21245979908,1493933716310,
8993783,58003.5400390625,2040,-4.49397590361446,2420,0.0843373493975904,1325,8.69879518072289,6768,-4.14960147148988,-128,-0.0784794604537094,-14480,8.87798896382587,-41,-1.57251908396947,103,0.625954198473282,-55,0.83969465648855,43298,99.7357596354994,27050,26.8277757621488,50872,2072.21245979908,1493933716493,
9000337,58203.5522460938,2035,-4.44578313253012,2416,0.144578313253012,1321,8.74698795180723,6832,-4.18884120171674,-160,-0.0980993255671367,-14496,8.88779889638259,-71,-0.396946564885496,26,1.08396946564885,-53,0.809160305343511,43297,99.7328706141199,27050,26.8277757621488,50853,2110.07946981299,1493933716701,
9006891,58403.564453125,2033,-4.50602409638554,2421,0.168674698795181,1326,8.68674698795181,6848,-4.19865113427345,-48,-0.029429797670141,-14496,8.88779889638259,-103,-0.564885496183206,37,1.57251908396947,-32,0.488549618320611,43298,99.7357596354994,27050,26.8277757621488,50859,2097.97281278991,1493933716896,
9013445,58603.5766601563,2035,-4.49397590361446,2420,0.144578313253012,1327,8.67469879518072,6720,-4.12017167381974,-80,-0.0490496627835684,-14544,8.91722869405273,-69,-0.99236641221374,65,1.05343511450382,-49,0.748091603053435,43297,99.7328706141199,27050,26.8277757621488,50875,2066.35734674757,1493933717091,
9019999,58803.5888671875,2035,-4.44578313253012,2416,0.144578313253012,1326,8.68674698795181,6816,-4.17903126916002,-144,-0.088289393010423,-14560,8.92703862660944,-41,-1.05343511450382,69,0.625954198473282,-50,0.763358778625954,43297,99.734579695241,27051,26.8337034487814,50862,2091.97143203812,1493933717308,
9026553,59003.6010742188,2036,-4.43373493975904,2415,0.132530120481928,1328,8.66265060240964,6800,-4.16922133660331,-96,-0.058859595340282,-14608,8.95646842427958,-53,-1.00763358778626,66,0.809160305343511,-56,0.854961832061069,43297,99.734579695241,27051,26.8337034487814,50869,2078.1008485717,1493933717491,
9033107,59203.61328125,2036,-4.45783132530121,2417,0.132530120481928,1325,8.69879518072289,6752,-4.13979153893317,-48,-0.029429797670141,-14592,8.94665849172287,-68,-1.05343511450382,69,1.0381679389313,-34,0.519083969465649,43297,99.734579695241,27051,26.8337034487814,50874,2068.30537122358,1493933717708,
9039661,59403.6254882813,2036,-4.45783132530121,2417,0.132530120481928,1325,8.69879518072289,6768,-4.14960147148988,-80,-0.0490496627835684,-14608,8.95646842427958,-48,-1.12977099236641,74,0.732824427480916,-52,0.793893129770992,43297,99.734579695241,27051,26.8337034487814,50878,2060.53522814658,1493933717896,
9046215,59603.6376953125,2036,-4.44578313253012,2416,0.132530120481928,1325,8.69879518072289,6752,-4.13979153893317,-128,-0.0784794604537094,-14608,8.95646842427958,-56,-0.961832061068702,63,0.854961832061069,-44,0.67175572519084,43297,99.734579695241,27051,26.8337034487814,50882,2052.82324781272,1493933718083,
9052769,59803.6499023438,2036,-4.43373493975904,2415,0.132530120481928,1323,8.72289156626506,6784,-4.1594114040466,-80,-0.0490496627835684,-14608,8.95646842427958,-69,-0.82442748091603,54,1.05343511450382,-43,0.656488549618321,43297,99.7379977092027,27053,26.8455582608933,50882,2052.82324781272,1493933718301,
9059323,60003.662109375,2033,-4.42168674698795,2414,0.168674698795181,1326,8.68674698795181,6896,-4.22808093194359,-48,-0.029429797670141,-14560,8.92703862660944,-95,-1.05343511450382,69,1.45038167938931,-56,0.854961832061069,43297,99.7379977092027,27053,26.8455582608933,50885,2047.07704010674,1493933718484,
9065877,60203.6743164063,2036,-4.50602409638554,2421,0.132530120481928,1326,8.68674698795181,6864,-4.20846106683017,-80,-0.0490496627835684,-14592,8.94665849172287,20,-0.50381679389313,33,-0.305343511450382,-78,1.19083969465649,43297,99.7379977092027,27053,26.8455582608933,50887,2043.26407349212,1493933718692,
9072431,60403.6865234375,2028,-4.44578313253012,2416,0.228915662650602,1324,8.71084337349398,6800,-4.16922133660331,0,0,-14560,8.92703862660944,45,-0.564885496183206,37,-0.687022900763359,-63,0.961832061068702,43297,99.7379977092027,27053,26.8455582608933,50890,2037.57118254926,1493933718909,
9078985,60603.6987304688,2035,-4.3855421686747,2411,0.144578313253012,1323,8.72289156626506,6736,-4.12998160637646,-16,-0.00980993255671367,-14672,8.99570815450644,-50,-1.0381679389313,68,0.763358778625954,-45,0.687022900763359,43297,99.7379977092027,27053,26.8455582608933,50892,2033.79351301221,1493933719092,
9085539,60803.7109375,2034,-4.49397590361446,2420,0.156626506024096,1325,8.69879518072289,6704,-4.11036174126303,-16,-0.00980993255671367,-14608,8.95646842427958,-106,-1.6793893129771,110,1.61832061068702,-13,0.198473282442748,43297,99.7448331443009,27057,26.8692656417233,50894,2030.02982519819,1493933719309,
9092093,61003.7231445313,2040,-4.43373493975904,2415,0.0843373493975904,1321,8.74698795180723,6800,-4.16922133660331,-112,-0.0686695278969957,-14608,8.95646842427958,1,-1.55725190839695,102,-0.0152671755725191,24,-0.366412213740458,43297,99.7448331443009,27057,26.8692656417233,50896,2026.2800416279,1493933719484,
9098647,61203.7353515625,2038,-4.43373493975904,2415,0.108433734939759,1324,8.71084337349398,6752,-4.13979153893317,-112,-0.0686695278969957,-14592,8.94665849172287,-52,-0.931297709923664,61,0.793893129770992,20,-0.305343511450382,43297,99.7448331443009,27057,26.8692656417233,50897,2024.41033987825,1493933719693,
9105201,61403.7475585938,2043,-4.48192771084337,2419,0.0481927710843374,1323,8.72289156626506,6800,-4.16922133660331,-176,-0.10790925812385,-14656,8.98589822194972,-114,-0.916030534351145,60,1.74045801526718,7,-0.106870229007634,43297,99.7448331443009,27057,26.8692656417233,50899,2020.68126864836,1493933719907,
9111755,61603.759765625,2045,-4.44578313253012,2416,0.0240963855421687,1325,8.69879518072289,6800,-4.16922133660331,-224,-0.137339055793991,-14576,8.93684855916615,-59,-1.20610687022901,79,0.900763358778626,5,-0.0763358778625954,43297,99.7448331443009,27057,26.8692656417233,50899,2020.68126864836,1493933720096,
9118309,61803.7719726563,2043,-4.40963855421687,2413,0.0481927710843374,1322,8.73493975903614,6784,-4.1594114040466,-224,-0.137339055793991,-14640,8.97608828939301,-7,-0.885496183206107,58,0.106870229007634,-36,0.549618320610687,43297,99.7465418796318,27058,26.8751920198111,50899,2020.68126864836,1493933720285,
9124863,62003.7841796875,2042,-4.44578313253012,2416,0.0602409638554217,1330,8.63855421686747,6784,-4.1594114040466,-240,-0.147148988350705,-14528,8.90741876149601,-30,-1.17557251908397,77,0.458015267175573,-55,0.83969465648855,43297,99.7465418796318,27058,26.8751920198111,50898,2022.54408539343,1493933720493,
9131417,62203.7963867188,2046,-4.44578313253012,2416,0.0120481927710843,1324,8.71084337349398,6768,-4.14960147148988,-224,-0.137339055793991,-14560,8.92703862660944,-50,-0.793893129770992,52,0.763358778625954,-45,0.687022900763359,43291,99.7292059224512,27058,26.8751920198111,50898,2022.54408539343,1493933720709,
9137971,62403.80859375,2043,-4.43373493975904,2415,0.0481927710843374,1326,8.68674698795181,6736,-4.12998160637646,-224,-0.137339055793991,-14608,8.95646842427958,-51,-0.900763358778626,59,0.778625954198473,-53,0.809160305343511,43291,99.7292059224512,27058,26.8751920198111,50898,2022.54408539343,1493933720899,
9144525,62603.8208007813,2045,-4.43373493975904,2415,0.0240963855421687,1325,8.69879518072289,6768,-4.14960147148988,-272,-0.166768853464132,-14656,8.98589822194972,-56,-0.83969465648855,55,0.854961832061069,-34,0.519083969465649,43297,99.7465418796318,27058,26.8751920198111,50899,2020.68126864836,1493933721082,
9151079,62803.8330078125,2043,-4.39759036144578,2412,0.0481927710843374,1324,8.71084337349398,6768,-4.14960147148988,-288,-0.176578786020846,-14720,9.02513795217658,-58,-0.99236641221374,65,0.885496183206107,-49,0.748091603053435,43297,99.7516677895295,27061,26.8929700336831,50900,2018.82188015304,1493933721292,
9157633,63003.8452148438,2043,-4.46987951807229,2418,0.0481927710843374,1324,8.71084337349398,6800,-4.16922133660331,-304,-0.18638871857756,-14544,8.91722869405273,-83,-0.961832061068702,63,1.26717557251908,-37,0.564885496183206,43297,99.7516677895295,27061,26.8929700336831,50900,2018.82188015304,1493933721506,
9164187,63203.857421875,2043,-4.42168674698795,2414,0.0481927710843374,1324,8.71084337349398,6816,-4.17903126916002,-256,-0.156958920907419,-14656,8.98589822194972,-45,-1.02290076335878,67,0.687022900763359,-46,0.702290076335878,43297,99.7516677895295,27061,26.8929700336831,50901,2016.96591045236,1493933721691,
9170741,63403.8696289063,2044,-4.42168674698795,2414,0.036144578313253,1324,8.71084337349398,6720,-4.12017167381974,-256,-0.156958920907419,-14704,9.01532801961987,-67,-0.885496183206107,58,1.02290076335878,-41,0.625954198473282,43297,99.7516677895295,27061,26.8929700336831,50902,2015.11335012594,1493933721899,
9177295,63603.8818359375,2045,-4.40963855421687,2413,0.0240963855421687,1324,8.71084337349398,6720,-4.12017167381974,-288,-0.176578786020846,-14688,9.00551808706315,-74,-1.05343511450382,69,1.12977099236641,-54,0.82442748091603,43297,99.7516677895295,27061,26.8929700336831,50903,2013.264189788,1493933722091,
9183849,63803.8940429688,2044,-4.40963855421687,2413,0.036144578313253,1322,8.73493975903614,6704,-4.11036174126303,-336,-0.206008583690987,-14688,9.00551808706315,-47,-0.885496183206107,58,0.717557251908397,-21,0.320610687022901,43297,99.7482505656066,27059,26.881118211138,50902,2015.11335012594,1493933722299,
9190403,64003.90625,2041,-4.37349397590361,2410,0.072289156626506,1324,8.71084337349398,6752,-4.13979153893317,-224,-0.137339055793991,-14656,8.98589822194972,-31,-0.732824427480916,48,0.473282442748092,-42,0.641221374045801,43297,99.7482505656066,27059,26.881118211138,50902,2015.11335012594,1493933722483,
9196957,64203.9184570313,2044,-4.40963855421687,2413,0.036144578313253,1324,8.71084337349398,6800,-4.16922133660331,-288,-0.176578786020846,-14640,8.97608828939301,-63,-1.02290076335878,67,0.961832061068702,-51,0.778625954198473,43290,99.7280250158731,27059,26.881118211138,50902,2015.11335012594,1493933722691,
9203511,64403.9306640625,2044,-4.40963855421687,2413,0.036144578313253,1325,8.69879518072289,6768,-4.14960147148988,-288,-0.176578786020846,-14608,8.95646842427958,-71,-1.0381679389313,68,1.08396946564885,-48,0.732824427480916,43289,99.7251356545674,27059,26.881118211138,50902,2015.11335012594,1493933722909,
9210065,64603.9428710938,2044,-4.40963855421687,2413,0.036144578313253,1322,8.73493975903614,6784,-4.1594114040466,-256,-0.156958920907419,-14592,8.94665849172287,-17,-1.11450381679389,73,0.259541984732824,-63,0.961832061068702,43290,99.7280250158731,27059,26.881118211138,50902,2015.11335012594,1493933723092,
9216619,64803.955078125,2044,-4.39759036144578,2412,0.036144578313253,1324,8.71084337349398,6720,-4.12017167381974,-272,-0.166768853464132,-14608,8.95646842427958,-71,-1.14503816793893,75,1.08396946564885,-32,0.488549618320611,43290,99.7348581907812,27063,26.9048211097065,50902,2015.11335012594,1493933723306,
9223173,65003.9672851563,2044,-4.40963855421687,2413,0.036144578313253,1325,8.69879518072289,6688,-4.10055180870631,-224,-0.137339055793991,-14592,8.94665849172287,-63,-0.900763358778626,59,0.961832061068702,-42,0.641221374045801,43287,99.7261896480834,27063,26.9048211097065,50902,2015.11335012594,1493933723490,
9229727,65203.9794921875,2045,-4.43373493975904,2415,0.0240963855421687,1323,8.72289156626506,6688,-4.10055180870631,-256,-0.156958920907419,-14656,8.98589822194972,-72,-1.08396946564885,71,1.09923664122137,-38,0.580152671755725,43291,99.7377477064849,27063,26.9048211097065,50902,2015.11335012594,1493933723699,
9236281,65403.9916992188,2043,-4.40963855421687,2413,0.0481927710843374,1323,8.72289156626506,6768,-4.14960147148988,-272,-0.166768853464132,-14624,8.9662783568363,-60,-0.977099236641221,64,0.916030534351145,-29,0.442748091603053,43287,99.7261896480834,27063,26.9048211097065,50902,2015.11335012594,1493933723883,
9242835,65604.00390625,2045,-4.39759036144578,2412,0.0240963855421687,1321,8.74698795180723,6752,-4.13979153893317,-208,-0.127529123237278,-14640,8.97608828939301,-18,-0.549618320610687,36,0.274809160305344,-43,0.656488549618321,43289,99.731968675813,27063,26.9048211097065,50902,2015.11335012594,1493933724093,
9249389,65804.0161132813,2046,-4.37349397590361,2410,0.0120481927710843,1322,8.73493975903614,6736,-4.12998160637646,-256,-0.156958920907419,-14544,8.91722869405273,-16,-1.06870229007634,70,0.244274809160305,-56,0.854961832061069,43289,99.7353848906287,27065,26.9166714395555,50901,2016.96591045236,1493933724308,
9255943,66004.0283203125,2044,-4.46987951807229,2418,0.036144578313253,1324,8.71084337349398,6704,-4.11036174126303,-272,-0.166768853464132,-14624,8.9662783568363,-131,-1.51145038167939,99,2,-56,0.854961832061069,43287,99.7296057092507,27065,26.9166714395555,50901,2016.96591045236,1493933724492,
9262497,66204.0405273438,2043,-4.40963855421687,2413,0.0481927710843374,1326,8.68674698795181,6704,-4.11036174126303,-320,-0.196198651134273,-14576,8.93684855916615,-24,-0.885496183206107,58,0.366412213740458,-22,0.33587786259542,43289,99.7353848906287,27065,26.9166714395555,50901,2016.96591045236,1493933724707,
9269051,66404.052734375,2043,-4.43373493975904,2415,0.0481927710843374,1323,8.72289156626506,6672,-4.0907418761496,-224,-0.137339055793991,-14576,8.93684855916615,-37,-0.931297709923664,61,0.564885496183206,-50,0.763358778625954,43289,99.7353848906287,27065,26.9166714395555,50901,2016.96591045236,1493933724891,
9275605,66604.0649414063,2043,-4.42168674698795,2414,0.0481927710843374,1324,8.71084337349398,6752,-4.13979153893317,-272,-0.166768853464132,-14608,8.95646842427958,-62,-0.732824427480916,48,0.946564885496183,-38,0.580152671755725,43286,99.7267161196652,27065,26.9166714395555,50900,2018.82188015304,1493933725099,
9282159,66804.0771484375,2047,-4.44578313253012,2416,0,1325,8.69879518072289,6752,-4.13979153893317,-256,-0.156958920907419,-14624,8.9662783568363,-68,-0.977099236641221,64,1.0381679389313,-42,0.641221374045801,43286,99.7267161196652,27065,26.9166714395555,50899,2020.68126864836,1493933725284,
9288713,67004.0893554688,2044,-4.44578313253012,2416,0.036144578313253,1324,8.71084337349398,6784,-4.1594114040466,-256,-0.156958920907419,-14672,8.99570815450644,-69,-1.14503816793893,75,1.05343511450382,-53,0.809160305343511,43285,99.7238265308152,27065,26.9166714395555,50898,2022.54408539343,1493933725492,
9295267,67204.1015625,2046,-4.43373493975904,2415,0.0120481927710843,1324,8.71084337349398,6736,-4.12998160637646,-368,-0.225628448804414,-14672,8.99570815450644,-55,-0.931297709923664,61,0.83969465648855,-56,0.854961832061069,43287,99.7296057092507,27065,26.9166714395555,50897,2024.41033987825,1493933725708,
9301821,67404.1137695313,2044,-4.40963855421687,2413,0.036144578313253,1324,8.71084337349398,6704,-4.11036174126303,-352,-0.215818516247701,-14624,8.9662783568363,-72,-0.854961832061069,56,1.09923664122137,-52,0.793893129770992,43287,99.7296057092507,27065,26.9166714395555,50896,2026.2800416279,1493933725887,
9308375,67604.1259765625,2047,-4.43373493975904,2415,0,1324,8.71084337349398,6800,-4.16922133660331,-320,-0.196198651134273,-14592,8.94665849172287,-80,-1.11450381679389,73,1.22137404580153,-43,0.656488549618321,43287,99.7296057092507,27065,26.9166714395555,50894,2030.02982519819,1493933726097,
9314929,67804.1381835938,2045,-4.43373493975904,2415,0.0240963855421687,1325,8.69879518072289,6720,-4.12017167381974,-320,-0.196198651134273,-14592,8.94665849172287,-55,-1.05343511450382,69,0.83969465648855,-54,0.82442748091603,43287,99.7347294314978,27068,26.9344455360119,50893,2031.90992624573,1493933726288,
9321483,68004.150390625,2045,-4.43373493975904,2415,0.0240963855421687,1325,8.69879518072289,6736,-4.12998160637646,-320,-0.196198651134273,-14512,8.8976088289393,-50,-0.793893129770992,52,0.763358778625954,-51,0.778625954198473,43284,99.7260603192656,27068,26.9344455360119,50893,2031.90992624573,1493933726496,
9328037,68204.1625976563,2046,-4.43373493975904,2415,0.0120481927710843,1324,8.71084337349398,6752,-4.13979153893317,-400,-0.245248313917842,-14640,8.97608828939301,-54,-1.09923664122137,72,0.82442748091603,-46,0.702290076335878,43287,99.7347294314978,27068,26.9344455360119,50891,2035.68059520044,1493933726711,
9334591,68404.1748046875,2045,-4.40963855421687,2413,0.0240963855421687,1325,8.69879518072289,6768,-4.14960147148988,-304,-0.18638871857756,-14528,8.90741876149601,-56,-1.0381679389313,68,0.854961832061069,-52,0.793893129770992,43285,99.7289500226073,27068,26.9344455360119,50890,2037.57118254926,1493933726895,
9341145,68604.1870117188,2047,-4.45783132530121,2417,0,1324,8.71084337349398,6768,-4.14960147148988,-272,-0.166768853464132,-14576,8.93684855916615,-17,-0.809160305343511,53,0.259541984732824,-46,0.702290076335878,43287,99.7347294314978,27068,26.9344455360119,50889,2039.46528483376,1493933727109,
9347699,68804.19921875,2046,-4.40963855421687,2413,0.0120481927710843,1325,8.69879518072289,6768,-4.14960147148988,-368,-0.225628448804414,-14608,8.95646842427958,-48,-0.793893129770992,52,0.732824427480916,-38,0.580152671755725,43287,99.7364372404212,27069,26.9403698621196,50888,2041.36291186538,1493933727300,
9354253,69004.2114257813,2045,-4.45783132530121,2417,0.0240963855421687,1326,8.68674698795181,6768,-4.14960147148988,-384,-0.235438381361128,-14640,8.97608828939301,-59,-0.99236641221374,65,0.900763358778626,-24,0.366412213740458,43284,99.7277680129685,27069,26.9403698621196,50887,2043.26407349212,1493933727483,
9360807,69204.2236328125,2045,-4.40963855421687,2413,0.0240963855421687,1323,8.72289156626506,6752,-4.13979153893317,-336,-0.206008583690987,-14592,8.94665849172287,-45,-0.916030534351145,60,0.687022900763359,-57,0.870229007633588,43285,99.730657754717,27069,26.9403698621196,50886,2045.1687795987,1493933727693,
9367361,69404.2358398438,2044,-4.44578313253012,2416,0.036144578313253,1325,8.69879518072289,6736,-4.12998160637646,-288,-0.176578786020846,-14608,8.95646842427958,-53,-0.961832061068702,63,0.809160305343511,-31,0.473282442748092,43285,99.730657754717,27069,26.9403698621196,50885,2047.07704010674,1493933727907,
9373915,69604.248046875,2047,-4.42168674698795,2414,0,1323,8.72289156626506,6768,-4.14960147148988,-272,-0.166768853464132,-14688,9.00551808706315,-28,-0.916030534351145,60,0.427480916030534,-27,0.412213740458015,43282,99.7219885316785,27069,26.9403698621196,50884,2048.98886497491,1493933728091,
9380469,69804.2602539063,2045,-4.44578313253012,2416,0.0240963855421687,1324,8.71084337349398,6688,-4.10055180870631,-240,-0.147148988350705,-14592,8.94665849172287,-68,-0.793893129770992,52,1.0381679389313,-48,0.732824427480916,43282,99.7236960993452,27070,26.9462940019441,50884,2048.98886497491,1493933728300,
9387023,70004.2724609375,2047,-4.40963855421687,2413,0,1324,8.71084337349398,6688,-4.10055180870631,-336,-0.206008583690987,-14640,8.97608828939301,-41,-0.82442748091603,54,0.625954198473282,-42,0.641221374045801,43284,99.7294756574464,27070,26.9462940019441,50883,2050.90426419913,1493933728492,
9393577,70204.2846679688,2046,-4.42168674698795,2414,0.0120481927710843,1324,8.71084337349398,6752,-4.13979153893317,-352,-0.215818516247701,-14608,8.95646842427958,-65,-1.02290076335878,67,0.99236641221374,-61,0.931297709923664,43284,99.7294756574464,27070,26.9462940019441,50883,2050.90426419913,1493933728708,
9400131,70404.296875,2049,-4.42168674698795,2414,-0.0240963855421687,1323,8.72289156626506,6720,-4.12017167381974,-304,-0.18638871857756,-14656,8.98589822194972,-37,-1.08396946564885,71,0.564885496183206,-46,0.702290076335878,43284,99.7294756574464,27070,26.9462940019441,50883,2050.90426419913,1493933728892,
9406685,70604.3090820313,2046,-4.40963855421687,2413,0.0120481927710843,1325,8.69879518072289,6768,-4.14960147148988,-320,-0.196198651134273,-14640,8.97608828939301,-67,-0.900763358778626,59,1.02290076335878,-43,0.656488549618321,43280,99.7179165441868,27070,26.9462940019441,50882,2052.82324781272,1493933729107,
9413239,70804.3212890625,2046,-4.43373493975904,2415,0.0120481927710843,1325,8.69879518072289,6720,-4.12017167381974,-336,-0.206008583690987,-14560,8.92703862660944,-75,-1.00763358778626,66,1.14503816793893,-42,0.641221374045801,43280,99.7213313782787,27072,26.9581417229166,50882,2052.82324781272,1493933729291,
9419793,71004.3334960938,2046,-4.45783132530121,2417,0.0120481927710843,1326,8.68674698795181,6736,-4.12998160637646,-272,-0.166768853464132,-14608,8.95646842427958,-33,-0.83969465648855,55,0.50381679389313,-41,0.625954198473282,43285,99.735780655731,27072,26.9581417229166,50882,2052.82324781272,1493933729500,
9426347,71204.345703125,2046,-4.43373493975904,2415,0.0120481927710843,1324,8.71084337349398,6656,-4.08093194359289,-320,-0.196198651134273,-14624,8.9662783568363,-100,-0.916030534351145,60,1.52671755725191,-43,0.656488549618321,43284,99.732890798769,27072,26.9581417229166,50882,2052.82324781272,1493933729696,
9432901,71404.3579101563,2048,-4.49397590361446,2420,-0.0120481927710843,1326,8.68674698795181,6768,-4.14960147148988,-288,-0.176578786020846,-14608,8.95646842427958,-103,-1.45038167938931,95,1.57251908396947,-61,0.931297709923664,43284,99.732890798769,27072,26.9581417229166,50882,2052.82324781272,1493933729892,
9439455,71604.3701171875,2049,-4.44578313253012,2416,-0.0240963855421687,1325,8.69879518072289,6752,-4.13979153893317,-336,-0.206008583690987,-14624,8.9662783568363,-11,-0.67175572519084,44,0.16793893129771,-10,0.152671755725191,43282,99.7271110870524,27072,26.9581417229166,50882,2052.82324781272,1493933730101,
9446009,71804.3823242188,2047,-4.40963855421687,2413,0,1323,8.72289156626506,6768,-4.14960147148988,-336,-0.206008583690987,-14640,8.97608828939301,-24,-0.778625954198473,51,0.366412213740458,-25,0.381679389312977,43282,99.7305258779949,27074,26.969988699276,50882,2052.82324781272,1493933730285,
9452563,72004.39453125,2048,-4.43373493975904,2415,-0.0120481927710843,1325,8.69879518072289,6784,-4.1594114040466,-368,-0.225628448804414,-14592,8.94665849172287,-63,-0.977099236641221,64,0.961832061068702,-40,0.610687022900763,43280,99.7247460156152,27074,26.969988699276,50882,2052.82324781272,1493933730494,
9459117,72204.4067382813,2049,-4.43373493975904,2415,-0.0240963855421687,1326,8.68674698795181,6768,-4.14960147148988,-272,-0.166768853464132,-14624,8.9662783568363,-52,-0.99236641221374,65,0.793893129770992,-54,0.82442748091603,43282,99.7305258779949,27074,26.969988699276,50882,2052.82324781272,1493933730708,
9465671,72404.4189453125,2048,-4.45783132530121,2417,-0.0120481927710843,1325,8.69879518072289,6800,-4.16922133660331,-320,-0.196198651134273,-14592,8.94665849172287,-52,-1.11450381679389,73,0.793893129770992,-41,0.625954198473282,43281,99.7276359464371,27074,26.969988699276,50882,2052.82324781272,1493933730892,
9472225,72604.4311523438,2047,-4.42168674698795,2414,0,1324,8.71084337349398,6832,-4.18884120171674,-320,-0.196198651134273,-14624,8.9662783568363,-42,-0.916030534351145,60,0.641221374045801,-52,0.793893129770992,43280,99.7247460156152,27074,26.969988699276,50881,2054.74582588659,1493933731107,
9478779,72804.443359375,2046,-4.42168674698795,2414,0.0120481927710843,1324,8.71084337349398,6784,-4.1594114040466,-320,-0.196198651134273,-14688,9.00551808706315,-69,-1.09923664122137,72,1.05343511450382,-60,0.916030534351145,43280,99.7281604562803,27076,26.9818349313686,50881,2054.74582588659,1493933731291,
9485333,73004.4555664063,2050,-4.43373493975904,2415,-0.036144578313253,1326,8.68674698795181,6800,-4.16922133660331,-336,-0.206008583690987,-14640,8.97608828939301,-30,-0.946564885496183,62,0.458015267175573,-44,0.67175572519084,43281,99.7310504639006,27076,26.9818349313686,50881,2054.74582588659,1493933731499,
9491887,73204.4677734375,2048,-4.39759036144578,2412,-0.0120481927710843,1325,8.69879518072289,6736,-4.12998160637646,-336,-0.206008583690987,-14688,9.00551808706315,-32,-1.00763358778626,66,0.488549618320611,-30,0.458015267175573,43280,99.7281604562803,27076,26.9818349313686,50880,2056.67200852943,1493933731684,
9498441,73404.4799804688,2048,-4.46987951807229,2418,-0.0120481927710843,1323,8.72289156626506,6736,-4.12998160637646,-304,-0.18638871857756,-14656,8.98589822194972,-66,-1.09923664122137,72,1.00763358778626,-51,0.778625954198473,43281,99.7310504639006,27076,26.9818349313686,50880,2056.67200852943,1493933731892,
9504995,73604.4921875,2050,-4.42168674698795,2414,-0.036144578313253,1324,8.71084337349398,6704,-4.11036174126303,-352,-0.215818516247701,-14624,8.9662783568363,-50,-1.06870229007634,70,0.763358778625954,-48,0.732824427480916,43281,99.7310504639006,27076,26.9818349313686,50880,2056.67200852943,1493933732110,
9511549,73804.5043945313,2046,-4.39759036144578,2412,0.0120481927710843,1322,8.73493975903614,6784,-4.1594114040466,-336,-0.206008583690987,-14592,8.94665849172287,-37,-0.99236641221374,65,0.564885496183206,-55,0.83969465648855,43281,99.7327576489051,27077,26.987757768423,50880,2056.67200852943,1493933732287,
9518103,74004.5166015625,2048,-4.42168674698795,2414,-0.0120481927710843,1325,8.69879518072289,6736,-4.12998160637646,-336,-0.206008583690987,-14544,8.91722869405273,-67,-0.931297709923664,61,1.02290076335878,-42,0.641221374045801,43281,99.7327576489051,27077,26.987757768423,50881,2054.74582588659,1493933732496,
9524657,74204.5288085938,2049,-4.42168674698795,2414,-0.0240963855421687,1324,8.71084337349398,6752,-4.13979153893317,-288,-0.176578786020846,-14576,8.93684855916615,-29,-0.83969465648855,55,0.442748091603053,-34,0.519083969465649,43280,99.7298676028874,27077,26.987757768423,50881,2054.74582588659,1493933732713,
9531211,74404.541015625,2046,-4.3855421686747,2411,0.0120481927710843,1324,8.71084337349398,6800,-4.16922133660331,-352,-0.215818516247701,-14624,8.9662783568363,-26,-1.12977099236641,74,0.396946564885496,-42,0.641221374045801,43279,99.7269775576055,27077,26.987757768423,50881,2054.74582588659,1493933732898,
9537765,74604.5532226563,2048,-4.44578313253012,2416,-0.0120481927710843,1327,8.67469879518072,6768,-4.14960147148988,-288,-0.176578786020846,-14656,8.98589822194972,-16,-0.961832061068702,63,0.244274809160305,-60,0.916030534351145,43280,99.7298676028874,27077,26.987757768423,50881,2054.74582588659,1493933733085,
9544319,74804.5654296875,2048,-4.42168674698795,2414,-0.0120481927710843,1324,8.71084337349398,6800,-4.16922133660331,-368,-0.225628448804414,-14640,8.97608828939301,-41,-0.885496183206107,58,0.625954198473282,-40,0.610687022900763,43280,99.733281748703,27079,26.9996028847643,50881,2054.74582588659,1493933733296,
9550873,75004.5776367188,2047,-4.43373493975904,2415,0,1324,8.71084337349398,6768,-4.14960147148988,-352,-0.215818516247701,-14560,8.92703862660944,-52,-1.00763358778626,66,0.793893129770992,-41,0.625954198473282,43280,99.733281748703,27079,26.9996028847643,50882,2052.82324781272,1493933733510,
9557427,75204.58984375,2052,-4.39759036144578,2412,-0.0602409638554217,1324,8.71084337349398,6784,-4.1594114040466,-288,-0.176578786020846,-14608,8.95646842427958,-49,-1.0381679389313,68,0.748091603053435,-35,0.534351145038168,43278,99.7275015052926,27079,26.9996028847643,50882,2052.82324781272,1493933733700,
9563981,75404.6020507813,2048,-4.42168674698795,2414,-0.0120481927710843,1324,8.71084337349398,6768,-4.14960147148988,-320,-0.196198651134273,-14544,8.91722869405273,-46,-1.0381679389313,68,0.702290076335878,-31,0.473282442748092,43280,99.733281748703,27079,26.9996028847643,50882,2052.82324781272,1493933733884,
9570535,75604.6142578125,2047,-4.44578313253012,2416,0,1325,8.69879518072289,6704,-4.11036174126303,-336,-0.206008583690987,-14608,8.95646842427958,-89,-0.931297709923664,61,1.3587786259542,-29,0.442748091603053,43280,99.733281748703,27079,26.9996028847643,50881,2054.74582588659,1493933734094,
9577089,75804.6264648438,2050,-4.45783132530121,2417,-0.036144578313253,1325,8.69879518072289,6752,-4.13979153893317,-336,-0.206008583690987,-14592,8.94665849172287,-82,-0.931297709923664,61,1.25190839694656,-55,0.83969465648855,43280,99.7384025990878,27082,27.0173691655056,50882,2052.82324781272,1493933734312,
9583643,76004.638671875,2051,-4.44578313253012,2416,-0.0481927710843374,1325,8.69879518072289,6784,-4.1594114040466,-384,-0.235438381361128,-14640,8.97608828939301,-30,-0.99236641221374,65,0.458015267175573,-40,0.610687022900763,43278,99.7326221253208,27082,27.0173691655056,50881,2054.74582588659,1493933734497,
9590197,76204.6508789063,2049,-4.39759036144578,2412,-0.0240963855421687,1324,8.71084337349398,6736,-4.12998160637646,-352,-0.215818516247701,-14608,8.95646842427958,-103,-1.20610687022901,79,1.57251908396947,-44,0.67175572519084,43278,99.7326221253208,27082,27.0173691655056,50880,2056.67200852943,1493933734687,
9596751,76404.6630859375,2049,-4.45783132530121,2417,-0.0240963855421687,1326,8.68674698795181,6720,-4.12017167381974,-336,-0.206008583690987,-14592,8.94665849172287,-83,-1.02290076335878,67,1.26717557251908,-35,0.534351145038168,43279,99.7355123618364,27082,27.0173691655056,50880,2056.67200852943,1493933734912,
9603305,76604.6752929688,2047,-4.45783132530121,2417,0,1323,8.72289156626506,6816,-4.17903126916002,-352,-0.215818516247701,-14544,8.91722869405273,-51,-1.02290076335878,67,0.778625954198473,-49,0.748091603053435,43278,99.7326221253208,27082,27.0173691655056,50879,2058.60180588785,1493933735097,
